cACCx,cACCy,cACCz,cECG,cEMG,cEDA,cTemp,cResp,wACCx,wACCy,wACCz,wBVP,wEDA,wTEMP,label
0.8969817120688303,-0.07401485885892596,-0.20672571522848945,0.03426871163504464,-0.0027107456752232142,12.98203604561942,34.20675277709961,1.1924525669642858,50.125,-14.0,34.875,22.145,6.156929,33.09,1
0.8951108625956944,-0.07553485700062343,-0.20918857165745328,0.0236224365234375,-0.0035854666573660716,12.987603323800224,34.20254898071289,2.5677054268973216,50.25,-14.0,35.0,5.846875,6.146695,33.11,1
0.8956960010528564,-0.07478057112012591,-0.21226628644125803,-0.009102957589285714,-0.0026691545758928572,12.972139630998884,34.205081939697266,2.9452601841517856,50.125,-14.0,34.875,-10.760625000000001,6.122389,33.11,1
0.8987954269136701,-0.07454971517835345,-0.19817942789622717,0.011179635184151786,-0.002502005440848214,12.978044782366071,34.2059211730957,2.3379080636160716,50.25,-14.0,35.0,18.041875,6.080174,33.11,1
0.8993417160851614,-0.07733371598379953,-0.19906628472464424,0.044770856584821425,-0.0029568917410714287,12.980819702148438,34.20684051513672,1.6859392438616072,50.25,-14.0,34.875,15.785625,6.084012,33.11,1
0.8995931461879185,-0.07941600152424404,-0.1950137141772679,-0.025462123325892858,-0.0028415352957589287,12.967062813895089,34.20640563964844,1.18865966796875,50.5,-14.0,35.0,-6.6899999999999995,6.077615,33.11,1
0.8995668547494071,-0.07801600013460432,-0.18950057200023107,-0.012303118024553571,-0.0026767403738839285,12.974046979631696,34.20938491821289,0.8531232561383929,50.25,-14.0,34.75,-4.195625000000001,6.066102,33.11,1
0.9001302834919521,-0.08057599987302508,-0.18628114359719414,0.04253043038504464,-0.0028540910993303573,12.976248604910714,34.2077751159668,0.6613507952008929,50.5,-14.0,35.0,5.995625,6.054589,33.11,1
0.9009565659931728,-0.07329828602927072,-0.16802399907793317,-0.014094412667410714,-0.0027439662388392856,12.964769635881696,34.20631790161133,0.32046072823660715,50.25,-14.0,35.0,-5.9956249999999995,6.030283,33.11,1
0.9092297152110509,-0.07903885739190238,-0.1325862853867667,-0.017938058035714285,-0.0025446428571428573,12.973992483956474,34.20968246459961,0.12154715401785714,50.125,-14.375,34.875,-11.517499999999998,6.076336,33.09,1
0.9179051474162511,-0.06860457215990338,-0.11170285565512521,0.00526611328125,-0.003849923270089286,12.976235525948661,34.20850372314453,-0.33786446707589285,50.125,-15.125,34.5,8.310625,6.072498,33.09,1
0.9143954317910331,-0.04697943040302822,-0.10116800103868757,-0.034765712193080354,-0.002954014369419643,12.964915684291295,34.21208190917969,-1.2684238978794642,50.375,-15.625,33.875,-2.854375,6.05203,33.09,1
0.9242445693697248,-0.0355851445879255,-0.09590742894581386,0.026328473772321427,-0.0023000662667410714,12.972765241350446,34.211456298828125,-1.6351056780133928,51.625,-16.875,32.0,-10.013125,6.045634,33.09,1
0.9113325677599226,-0.06611200094223023,-0.10510514157158987,-0.011180943080357143,-0.003150460379464286,12.969122750418526,34.20954895019531,-1.1390468052455358,52.5,-17.75,29.75,9.29,5.985509,33.09,1
0.8925348581586565,-0.0877920000893729,-0.1097771440233503,0.09121451241629465,-0.0028988211495535716,12.954626900809151,34.214630126953125,-1.45751953125,52.625,-19.375,28.375,0.24499999999999988,5.957366,33.09,1
0.9130639975411551,-0.13167542627879553,-0.12269942964826311,-0.06229901994977679,-0.0032417515345982144,12.965133666992188,34.21063232421875,-3.04803466796875,53.375,-18.875,28.375,1.63875,5.912592,33.09,1
0.9160388578687395,-0.14791085958480835,-0.15634742975234986,-0.0657366943359375,-0.003076695033482143,12.95808846609933,34.21092987060547,-4.022260393415179,53.0,-18.625,29.625,12.553125,5.917709,33.09,1
0.8892285701206752,-0.05020228590284075,-0.15326400143759591,0.08781502859933035,-0.0028067452566964287,12.943801879882812,34.21099853515625,-3.762939453125,55.875,-18.0,28.0,-19.625,5.936898,33.09,1
0.9138194288526262,0.01658628259386335,-0.12888914585113526,-0.0008666120256696428,-0.0031486293247767858,12.955378941127233,34.20580291748047,-2.7086007254464284,58.75,-4.375,19.625,-6.869375,6.031562,33.09,1
0.9065337187903268,0.03610285486493792,-0.1632720010621207,-0.0428924560546875,-0.0022948346819196427,12.95383780343192,34.20827102661133,-1.5043858119419642,35.625,-14.875,48.0,-4.3775,6.068661,33.09,1
0.9046068572998047,0.018841143335614884,-0.14210057190486364,0.06774117606026786,-0.003633335658482143,12.945005144391741,34.20653533935547,-1.0754568917410714,37.25,-10.0,49.0,-26.54625,6.179955,33.09,1
0.9143760054452079,-0.004518855980464391,-0.1444788578578404,-0.03810869489397321,-0.002713099888392857,12.959538051060267,34.20654296875,-0.26527622767857145,44.5,-3.375,44.375,32.278125,6.187631,33.09,1
0.8997862877164569,-0.04923542772020612,-0.14344571556363786,-0.07047703334263393,-0.002617885044642857,12.960359845842634,34.20839309692383,1.7934134347098214,46.0,-6.5,42.0,95.161875,6.177397,33.09,1
0.9082971429824829,-0.07705257211412703,-0.13620342765535626,0.019690115792410715,-0.002364676339285714,12.95454842703683,34.20766830444336,4.055184500558036,48.25,-8.25,40.25,-30.208125000000006,6.168442,33.09,1
0.8993794284548078,-0.08407999992370606,-0.13331542594092233,0.06710187639508929,-0.0033262416294642856,12.961713518415179,34.20181655883789,5.059029715401786,48.875,-7.625,39.0,-66.59625,6.150533,33.09,1
0.9137508535385132,-0.09990057195935931,-0.14473371539797103,-0.028904506138392856,-0.0034473528180803572,12.952344621930804,34.20549774169922,4.65576171875,49.875,-5.5,38.75,-3.211875,6.145416,33.09,1
0.9064708532605852,-0.06904914379119872,-0.16855771269117084,-0.042397809709821425,-0.0023183768136160712,12.95463126046317,34.20930099487305,3.5886666434151784,49.75,-5.75,37.75,1.0743749999999999,6.13774,33.09,1
0.9010091475078038,-0.051592000211988176,-0.18425371408462524,0.023707449776785714,-0.002994559151785714,12.956274850027901,34.203128814697266,1.9422694614955358,51.25,-5.0,35.75,15.54,6.131344,33.09,1
0.9022331442151751,-0.08116571460451398,-0.18603314535958426,-0.019422258649553572,-0.0023466273716517857,12.943171909877233,34.207618713378906,0.951416015625,51.625,-4.75,33.625,26.629375000000003,6.135181,33.09,1
0.9046959931509836,-0.08820456981658936,-0.18224685668945312,0.050782470703125,-0.003830043247767857,12.954648699079241,34.20961380004883,1.34051513671875,53.25,-6.75,33.75,50.865,6.153091,33.11,1
0.8989931426729475,-0.07356685365949359,-0.17580114398683822,-0.034461233956473214,-0.002225777762276786,12.953323364257812,34.20819854736328,2.2670462472098216,51.5,-10.0,27.625,45.04625,6.167163,33.11,1
0.8602091435023717,-0.05169943026133946,-0.1600948589188712,0.05569466727120536,-0.0029754638671875,12.944734845842634,34.20703887939453,2.2325613839285716,60.25,-14.625,27.0,-44.197500000000005,6.171,33.11,1
0.9463405677250454,-0.01842857667378017,-0.1772605722291129,0.031143624441964286,-0.0027214704241071428,12.949196951729911,34.20640182495117,0.7013113839285714,58.25,-13.0,21.875,-11.924999999999999,6.186352,33.11,1
0.9071245697566441,-0.011830859184265137,-0.15076800176075528,-0.06765642438616072,-0.0030494907924107145,12.943352835518974,34.205101013183594,-1.6998639787946428,53.5,-13.875,30.125,-69.92125,6.174839,33.07,1
0.9024697194780622,0.011359997136252267,-0.12388114179883684,0.018729596819196427,-0.0033571079799107144,12.931605747767858,34.2093620300293,-3.973118373325893,50.25,-15.0,33.5,-62.176249999999996,6.202982,33.07,1
0.9123885720116751,-0.005675426551273891,-0.1352685717173985,0.00821384974888393,-0.002866646902901786,12.938424246651786,34.20951461791992,-4.904985700334821,50.375,-15.375,34.5,-21.253125,6.195306,33.07,1
0.9040537187031337,-0.013209145750318254,-0.14092457226344518,0.03769723074776786,-0.003458077566964286,12.943056379045759,34.21259689331055,-4.807809012276786,48.375,-15.0,36.5,-37.855625,6.192748,33.07,1
0.907997715813773,-0.026297143868037633,-0.1380914306640625,-0.0421197509765625,-0.0030591692243303573,12.932508196149554,34.20783615112305,-4.450299944196429,49.25,-14.75,35.75,-57.544999999999995,6.18891,33.11,1
0.907766854422433,-0.020278862885066442,-0.13544914279665266,-0.003350830078125,-0.002764369419642857,12.933992658342634,34.21063232421875,-3.7900565011160716,49.5,-15.25,35.125,40.758750000000006,6.162046,33.11,1
0.9044777079990932,-0.014211428506033762,-0.1502491419655936,0.04043125697544643,-0.002991943359375,12.935407366071429,34.2091064453125,-2.840061732700893,50.25,-14.875,34.375,73.63125,6.183793,33.11,1
0.9036548546382359,-0.028811429909297397,-0.16356228726250785,-0.0279144287109375,-0.0022236851283482144,12.924346923828125,34.20848846435547,-1.8921072823660714,50.625,-13.75,34.625,42.582499999999996,6.202982,33.11,1
0.9061234269823347,-0.03536799771445138,-0.15093257325036186,-0.022313494001116072,-0.0029689243861607145,12.932054792131696,34.210601806640625,-1.4021780831473214,51.25,-13.5,34.0,18.3775,6.204261,33.07,1
0.9069828530720302,-0.036169144426073344,-0.14616114548274448,-0.0037029157366071427,-0.002986973353794643,12.934494018554688,34.21156692504883,-0.8821934291294643,51.5,-13.25,33.75,1.1256249999999997,6.210658,33.07,1
0.907440002986363,-0.02689142874308995,-0.15838971410478864,-0.05702401297433036,-0.002868739536830357,12.928717476981026,34.21106719970703,0.41421072823660715,51.0,-14.0,33.875,-3.871875,6.211936,33.07,1
0.903710857118879,-0.0316457165990557,-0.12931657178061348,0.03273193359375,-0.0029571533203125,12.949332101004464,34.21250534057617,2.3880528041294644,50.125,-13.75,34.875,-8.468125,6.220891,33.07,1
0.9113954305648804,-0.024872000217437743,-0.12323200225830078,-0.03128696986607143,-0.0023262241908482144,12.967714582170759,34.21082305908203,4.53070068359375,48.75,-13.5,36.5,-6.78,6.224729,33.09,1
0.9093725728988648,-0.01746971436909267,-0.14434171165738788,0.03853297642299107,-0.003377772739955357,12.982692173549108,34.209877014160156,5.270315987723214,49.375,-13.75,36.125,-18.591875,6.261827,33.09,1
0.9029634257725306,-0.017387429305485317,-0.14648457050323485,0.012718505859375,-0.0033694022042410716,13.015866960797991,34.21613311767578,4.275730678013393,49.25,-14.375,36.625,-23.27375,6.30916,33.09,1
0.9066982855115618,-0.03761371510369437,-0.15432000296456475,-0.057199009486607146,-0.0027756173270089284,13.029006958007812,34.212284088134766,2.7510288783482144,55.75,-12.125,32.625,2.175625,6.366726,33.09,1
0.9029908582142421,-0.007577140671866281,-0.15813257217407226,0.016142578125,-0.003243844168526786,13.041708809988839,34.2092399597168,1.6417149135044642,51.75,-3.0,28.875,-27.685624999999998,6.39487,33.07,1
0.906307430267334,-0.03229714597974505,-0.14586514404841833,0.059721156529017855,-0.0024797712053571427,13.057283673967634,34.21348190307617,1.10986328125,58.625,-2.625,20.0,15.993125000000003,6.375681,33.07,1
0.9060937145778111,-0.03696457249777658,-0.15213600022452217,-0.01625296456473214,-0.002886788504464286,13.056405203683036,34.20809555053711,-0.13410295758928573,60.875,-1.125,17.875,76.271875,6.365447,33.07,1
0.9066354233877999,-0.019688002041407995,-0.15095200061798095,0.018570818219866073,-0.0022399030412946427,13.068311418805804,34.20792007446289,-1.8022896902901786,61.25,-0.25,15.625,100.560625,6.361609,33.07,1
0.9045245701926096,-0.01702171359743391,-0.16107542753219606,0.016223929268973213,-0.0025469970703125,13.067816598074776,34.20903778076172,-2.95269775390625,60.125,-2.0,17.375,82.32374999999999,6.374402,33.07,1
0.9012468555995397,-0.018714286940438408,-0.1868297130720956,-0.020343540736607144,-0.003401314871651786,13.055964878627233,34.2053108215332,-3.64837646484375,60.625,-3.625,19.0,-142.73375,6.316835,33.07,1
0.8999474225725447,-0.037474284512656074,-0.19072000299181258,0.022531912667410715,-0.0026516287667410713,13.055354527064733,34.20670700073242,-3.6712820870535716,59.875,-11.625,17.5,-89.57125,6.237522,33.07,1
0.8992388582229615,-0.04457371541431972,-0.1772160015787397,0.07055419921875,-0.002969970703125,13.058870588030134,34.21214294433594,-3.10418701171875,63.125,-3.75,-1.25,117.99625,6.22345,33.07,1
0.9032297127587454,-0.04128114359719413,-0.16563313961029053,0.057336338588169646,-0.002585972377232143,13.064985002790179,34.20698547363281,-2.056544712611607,62.875,-3.625,-9.125,44.065625,6.113434,33.07,1
0.9068011406489781,-0.04075542620250157,-0.1511222880227225,-0.12541155133928572,-0.0030277797154017855,13.062537057059151,34.21481704711914,-0.7667672293526786,62.625,-2.625,-3.75,-10.59,6.043076,33.07,1
0.9069382803780692,-0.030406855855669292,-0.1506708584512983,-0.038095615931919645,-0.0024601527622767857,13.05250985281808,34.21157455444336,0.353759765625,63.125,-4.25,1.875,-138.219375,6.008536,33.07,1
0.9093531404222761,-0.03592457090105329,-0.15396114485604423,0.05042018345424107,-0.003613978794642857,13.054323468889509,34.21242904663086,1.6717267717633928,62.0,-4.5,5.25,-234.2475,6.005977,33.07,1
0.9021702929905483,-0.03963428701673235,-0.15317028488431658,0.037843453543526785,-0.0021831403459821428,13.062107631138392,34.20917892456055,3.2718418666294644,63.125,-5.25,3.625,152.37562499999999,6.007257,33.07,1
0.9011577129364013,-0.034524571555001396,-0.16486628600529263,-0.07400992257254464,-0.0031093924386160713,13.051382882254464,34.215660095214844,4.73309326171875,64.25,-7.5,10.75,61.679375,6.01749,33.07,1
0.9104514278684344,-0.06211885895047869,-0.1313005726678031,0.011705147879464285,-0.0034949602399553573,13.041046142578125,34.21664047241211,5.469621930803571,56.875,-6.25,19.5,5.61875,6.011094,33.07,1
0.9070879997525896,-0.008363428456442697,-0.1527188583782741,0.07224295479910714,-0.0027931431361607143,13.042463030133929,34.213077545166016,5.009477887834821,63.375,-6.125,13.0,19.23125,6.078895,33.07,1
0.8979885673522949,-0.0180194319997515,-0.18004457099097115,-0.03383658272879464,-0.003226841517857143,13.042225428989955,34.21758270263672,3.3305140904017856,61.625,-7.625,14.5,3.7024999999999997,6.016211,33.07,1
0.9070480026517596,-0.04785485710416521,-0.17539542879377093,-0.03290980747767857,-0.0032108851841517855,13.027053833007812,34.214962005615234,0.8950456891741071,63.0,-0.25,16.25,15.325624999999999,5.962483,33.07,1
0.900342858859471,-0.024699427059718542,-0.1783382865360805,0.07013201032366072,-0.0028373500279017857,13.026670183454241,34.21296310424805,-1.1973353794642858,58.625,5.375,3.0,111.324375,5.950969,33.07,1
0.900814859526498,-0.042724571568625316,-0.1702594290460859,0.06860988071986607,-0.002595912388392857,13.036586216517858,34.212860107421875,-2.1250174386160716,58.625,6.25,-4.25,-133.4575,5.961204,33.07,1
0.9023874303272792,-0.02746857132230486,-0.17331199986594065,-0.10601728166852678,-0.003278634207589286,13.035337175641741,34.22182083129883,-2.529148646763393,68.375,-0.625,-1.125,20.111874999999998,5.869097,33.09,1
0.9045382847104754,-0.01904228619166783,-0.16639314208711897,-0.0188800048828125,-0.002701328822544643,13.027537754603795,34.218284606933594,-2.822666713169643,59.25,-5.25,17.375,86.268125,5.870377,33.09,1
0.9036800023487636,-0.024713144983564105,-0.1612719999040876,0.02356358119419643,-0.0022092982700892857,13.032758440290179,34.21684265136719,-2.790004185267857,53.0,-5.625,29.875,-123.48624999999998,5.904916,33.09,1
0.9186800009863717,-0.006328002044132777,-0.16091200045176915,0.027786778041294643,-0.0031836809430803572,13.036400931222099,34.22157287597656,-2.31903076171875,57.5,-6.0,31.625,20.58875,6.020049,33.09,1
0.8930022873197283,0.014238858222961425,-0.17942056928362166,-0.09843723842075892,-0.0031674630301339285,13.027454921177455,34.22077178955078,-1.5121372767857142,52.375,-19.75,29.75,-12.054375,6.073778,33.09,1
0.896254859651838,-0.002982856205531529,-0.178847998210362,0.006924002511160714,-0.002694004603794643,13.023869105747767,34.221500396728516,-0.30963134765625,51.375,-17.0,32.0,93.848125,6.081453,33.09,1
0.8928399964741298,-0.06562057086399624,-0.1215657149042402,0.02407601492745536,-0.003238612583705357,13.045508248465401,34.22187805175781,1.4644513811383928,52.875,-18.125,27.25,-52.998125,6.055868,33.09,1
0.9255325726100376,-0.08996228558676583,-0.13616228682654244,0.013799089704241072,-0.0028355189732142856,13.061514718191964,34.21953201293945,3.1971435546875,54.625,-16.25,26.875,-69.13187500000001,6.037959,33.09,1
0.9059062835148403,-0.0813680008479527,-0.12318285839898245,-0.0070955984933035714,-0.002972586495535714,13.053510393415179,34.22344970703125,4.777840750558036,55.375,-14.375,26.625,61.211875,5.939456,33.07,1
0.9144137123652867,-0.06809371709823608,-0.11509485585348947,0.030735037667410713,-0.0029307338169642858,13.056767054966517,34.22282791137695,5.160226004464286,55.0,-13.875,26.875,24.603125000000002,5.903637,33.07,1
0.9055828564507621,-0.06132000207901001,-0.13347428560256958,0.033250645228794645,-0.0022247314453125,13.058438982282366,34.2216682434082,4.293840680803571,54.875,-13.875,27.5,-23.62625,5.88061,33.07,1
0.9090057134628295,-0.06718171630586897,-0.14029485872813632,-0.028824462890625,-0.00369873046875,13.043849400111608,34.22350311279297,3.4596732003348216,54.75,-14.75,27.25,-15.477500000000001,5.875494,33.07,1
0.907629714012146,-0.064771431854793,-0.14298285586493356,0.004904872349330357,-0.0021990966796875,13.049329485212054,34.224491119384766,2.2120448521205356,54.375,-14.625,28.0,2.0006250000000003,5.879332,33.07,1
0.9076765700748989,-0.05832228796822684,-0.14675085646765573,0.02028782435825893,-0.0037620326450892856,13.048987252371651,34.221004486083984,0.21910749162946427,54.125,-14.875,28.0,-4.063750000000001,5.88189,33.07,1
0.9058434275218419,-0.0558308550289699,-0.1575051426887512,0.04215401785714286,-0.0019866943359375,13.032956804547991,34.22467041015625,-2.3250732421875,54.0,-15.0,28.0,-7.88,5.838395,33.07,1
0.9055417122159686,-0.060762286526816235,-0.15464685542242868,-0.0215789794921875,-0.0032961600167410714,13.042308262416295,34.223594665527344,-4.549726213727679,54.125,-15.0,28.0,-7.8775,5.857584,33.07,1
0.9063211406980242,-0.06331085579735893,-0.15809143032346454,-0.049427490234375,-0.0033306884765625,13.038293021065849,34.226036071777344,-5.590462820870536,54.125,-15.0,28.125,16.97375,5.851188,33.07,1
0.9037657158715384,-0.05831999846867152,-0.1618422862461635,0.11261771065848214,-0.0035574776785714285,13.025658743722099,34.2213020324707,-5.854230608258929,54.5,-15.0,28.125,1.429375,5.860143,33.07,1
0.9069942835399083,-0.05545599971498762,-0.15638285705021449,-0.05354239327566964,-0.0019652448381696427,13.038524082728795,34.2234992980957,-5.576651436941964,54.75,-14.125,28.0,0.9449999999999998,5.851188,33.07,1
0.9080342830930437,-0.06571542978286743,-0.14777142592838832,-0.06882908412388393,-0.0034211948939732143,13.035491943359375,34.22271728515625,-4.807181222098214,53.25,-14.5,29.25,17.9175,5.970158,33.07,1
0.9079622854505266,-0.060318856920514786,-0.1437657148497445,-0.0099554443359375,-0.0028836495535714286,13.028656005859375,34.222694396972656,-3.732081821986607,54.75,-14.5,27.625,-5.4868749999999995,6.054589,33.07,1
0.9063737079075405,-0.06102628639766148,-0.13830857140677316,-0.001776646205357143,-0.003099452427455357,13.039249965122767,34.225948333740234,-2.143947056361607,54.25,-14.25,27.75,13.1675,5.994464,33.07,1
0.9078434290204729,-0.06500342845916748,-0.14922628607068744,0.040958077566964284,-0.0027531215122767855,13.044919695172991,34.22441101074219,-0.16680036272321427,54.625,-14.375,28.0,27.113124999999997,5.966321,33.07,1
0.9078171396255493,-0.06397828817367554,-0.14333142927714757,-0.036903076171875,-0.0027811104910714286,13.035500662667411,34.22509002685547,1.7557896205357142,54.75,-14.375,27.625,12.783750000000001,5.936898,33.07,1
0.906963426045009,-0.06430057321275984,-0.15026857171739852,0.05148638044084822,-0.0030863734654017856,13.034949166434151,34.22663116455078,2.9412667410714284,54.75,-14.0,28.0,-6.250624999999999,5.924105,33.07,1
0.9056331423350743,-0.06753714425223215,-0.1579268605368478,0.055082571847098215,-0.0027081298828125,13.035596575055804,34.22534942626953,3.115940638950893,54.25,-13.875,27.75,-32.1075,5.912592,33.07,1
0.9016960035051619,-0.0628434293610709,-0.1712365698814392,-0.0683404541015625,-0.0030816650390625,13.025610787527901,34.22600173950195,2.194309779575893,54.625,-13.875,27.125,-24.26,5.913871,33.07,1
0.9036514282226562,-0.07555542945861816,-0.1700982870374407,0.06598885672433036,-0.0026864188058035713,13.018870762416295,34.22761917114258,0.46938650948660715,55.125,-13.875,26.625,-9.834375,5.959924,33.07,1
0.9060285684040614,-0.0783417170388358,-0.16484342779432024,0.018567940848214285,-0.0033712332589285712,13.024470738002233,34.22980499267578,-1.1306937081473214,55.5,-13.75,26.375,13.53,5.910033,33.07,1
0.9041725662776402,-0.0748079981122698,-0.16460228647504535,-0.08720450265066965,-0.0029404122488839285,13.020464215959821,34.2292594909668,-2.1436767578125,55.625,-13.75,26.0,5.32625,5.88061,33.07,1
0.9048994248253959,-0.07616914646966116,-0.16669257300240653,0.010272478376116072,-0.002744227818080357,13.008584158761161,34.22704315185547,-2.6031319754464284,55.625,-13.5,26.0,-10.74125,5.861422,33.07,1
0.9047154324395316,-0.0738765733582633,-0.16433028391429355,-0.0008849225725446429,-0.002618408203125,13.016350882393974,34.226871490478516,-2.4692905970982144,55.75,-13.625,26.0,34.448750000000004,5.851188,33.07,1
0.9052434267316546,-0.07883428505488804,-0.15358399936131067,0.014354422433035714,-0.0034353201729910715,13.019097464425224,34.227745056152344,-1.9247698102678572,55.75,-13.75,26.0,4.52,5.844791,33.05,1
0.9077497134889875,-0.0750342879976545,-0.15298514298030308,-0.0719000244140625,-0.003036411830357143,13.009310041155134,34.223358154296875,-1.1585867745535714,55.875,-13.875,26.0,-36.754999999999995,5.844791,33.05,1
0.9082388591766357,-0.06697142703192574,-0.14562857219151087,0.0010695975167410714,-0.0025276402064732142,13.004793439592634,34.22956466674805,0.17314801897321427,55.5,-13.75,26.125,-6.010625,5.840954,33.05,1
0.9081577096666609,-0.06932914222989764,-0.14111885513578143,0.04304417201450893,-0.0031441824776785713,13.016815185546875,34.22964859008789,2.395961216517857,55.375,-14.0,26.25,2.930625,5.834558,33.05,1
0.9064102806363787,-0.06930056878498622,-0.14536914450781685,-0.017443934849330357,-0.0029092843191964287,13.018458775111608,34.231689453125,4.794041224888393,55.375,-14.0,26.0,-9.266875,5.820486,33.03,1
0.9071028573172433,-0.07020685570580619,-0.13821485689708166,0.019336460658482144,-0.003230503627232143,13.005974905831474,34.2296028137207,6.202340262276786,55.25,-14.0,26.0,-7.935625,5.825603,33.03,1
0.9077737154279436,-0.06926857369286674,-0.13733599969318935,0.02604884556361607,-0.0029304722377232143,13.013722011021205,34.22933578491211,6.531206403459821,55.625,-14.0,26.0,9.445625,5.807693,33.03,1
0.9080765683310372,-0.07034971407481602,-0.14566628558295114,0.03074680873325893,-0.003282034737723214,13.014051164899554,34.2315788269043,5.83673095703125,55.625,-13.75,26.125,5.640000000000001,5.808972,33.03,1
0.9057017135620117,-0.0694605691092355,-0.154747428553445,-0.038109479631696426,-0.002934395926339286,13.001521519252233,34.231998443603516,4.211713518415179,55.5,-13.75,26.125,-11.79,5.797459,33.05,1
0.9077954278673445,-0.07164571217128209,-0.15302171298435757,0.04665553501674107,-0.0027740478515625,13.002530779157366,34.23430633544922,1.9481985909598214,55.625,-14.0,26.0,6.17625,5.794901,33.05,1
0.906018283707755,-0.07242171594074794,-0.15444685799734933,0.04312186104910714,-0.0030701555524553573,13.008416312081474,34.23272705078125,-0.19843401227678573,55.875,-14.0,26.0,17.013125,5.785946,33.05,1
0.9054845687321255,-0.07367428541183471,-0.15804685728890555,-0.07985857282366071,-0.003019932338169643,13.00323486328125,34.23548126220703,-1.8394077845982142,56.0,-13.75,26.0,-1.1612500000000001,5.771874,33.05,1
0.9055302824292865,-0.0734994295665196,-0.15794057096753802,0.021549159458705357,-0.0030063302176339284,12.996952601841517,34.235267639160156,-2.8333827427455356,55.75,-13.5,26.0,-7.73625,5.771874,33.03,1
0.9062377153124128,-0.07269257136753628,-0.15215428522654942,0.007431727818080357,-0.0027023751395089286,13.007298060825892,34.23435974121094,-3.020289829799107,56.0,-13.75,26.0,14.598125,5.768036,33.03,1
0.9059005723680769,-0.07287657260894775,-0.15572228363582066,0.03153180803571429,-0.003345860072544643,13.010373796735491,34.23566818237305,-2.7924019949776784,56.0,-13.625,26.0,2.751875,5.768036,33.03,1
0.9060982847213745,-0.07390171493802752,-0.15519085577556066,-0.06686619349888392,-0.003300083705357143,13.002245221819196,34.234371185302734,-2.532374790736607,56.0,-13.5,26.0,-13.12875,5.764199,33.03,1
0.9071154274259294,-0.07313485826764787,-0.15308799948011126,-0.009216482979910715,-0.0032663399832589288,12.997940063476562,34.23749923706055,-2.220668247767857,55.875,-13.625,26.0,12.745000000000001,5.770595,33.05,1
0.9069542871202741,-0.07170171499252319,-0.15050971371786934,0.08528424944196429,-0.0024481201171875,12.996047973632812,34.23939895629883,-1.7568533761160714,56.0,-13.5,26.0,6.071875,5.768036,33.05,1
0.9072194296973092,-0.07082514490400042,-0.14569942440305436,0.025053798130580358,-0.0033699253627232145,12.998827253069196,34.23647689819336,-1.2217930385044642,55.75,-13.875,26.0,-6.841875000000001,5.773153,33.05,1
0.9085920075007847,-0.06697028602872576,-0.14122971364430018,-0.09646859305245535,-0.0029043143136160713,12.994345528738839,34.236175537109375,-0.6249738420758929,55.625,-14.0,26.0,-9.515625,5.782108,33.05,1
0.9089440032414028,-0.06453142779214041,-0.13887885638645717,-0.047207205636160716,-0.0031258719308035715,12.982358660016741,34.236854553222656,0.04451206752232143,55.375,-14.0,26.25,10.533125,5.77955,33.03,1
0.9086285727364677,-0.06360457250050136,-0.13951542888368879,0.011171787806919643,-0.003007376534598214,12.978079659598214,34.236698150634766,1.0226266043526786,55.0,-14.0,26.25,2.7737499999999997,5.783388,33.03,1
0.9074765716280256,-0.06398285797664098,-0.14307428564344132,0.04919834681919643,-0.0028425816127232145,12.987570626395089,34.23886489868164,2.15521240234375,55.25,-14.0,26.375,-7.097499999999999,5.769316,33.03,1
0.9048274271828788,-0.06399200098855155,-0.14812000002179826,-0.015601370675223214,-0.0029618617466517856,12.985985892159599,34.2361946105957,3.1967686244419644,55.0,-14.0,26.125,-19.703125,5.770595,33.03,1
0.9078537178039551,-0.06432342903954642,-0.1424994284766061,-0.013536202566964285,-0.003035888671875,12.970860072544642,34.2385368347168,3.675022670200893,55.125,-14.0,26.125,7.964375,5.762919,33.05,1
0.9103234209333148,-0.07183085680007935,-0.13599999836512974,0.09249075753348214,-0.002813284737723214,12.970306396484375,34.23899459838867,3.3233555385044644,55.25,-14.0,26.25,9.384374999999999,5.762919,33.05,1
0.9093291425704956,-0.086365715776171,-0.14309371437345234,0.054141148158482144,-0.0028451974051339284,12.978306361607142,34.237178802490234,2.3099365234375,55.375,-14.25,26.375,-0.20437499999999997,5.746289,33.05,1
0.9092891427448818,-0.07566285678318568,-0.1502331440789359,-0.08499703543526786,-0.002785557338169643,12.974805559430804,34.24281311035156,1.0450090680803572,55.0,-15.375,26.875,-13.288125,5.743731,33.05,1
0.9064285721097673,-0.0662777144568307,-0.14482171603611538,-0.007767857142857143,-0.002928379603794643,12.96101815359933,34.24138259887695,-0.7238856724330357,53.125,-17.625,28.75,3.2175,5.750127,33.05,1
0.8800205714362008,-0.017369143281664168,-0.10096000126429966,0.04655142647879464,-0.0026675851004464286,12.961375645228795,34.24371337890625,-2.8045218331473216,50.0,-20.625,30.375,11.511875,5.792342,33.05,1
0.9264479998179844,-0.025258286680494037,-0.12320114306041173,0.03531633649553571,-0.002963954380580357,12.962474278041295,34.240234375,-4.521580287388393,50.625,-19.875,31.25,4.8549999999999995,5.83072,33.05,1
0.9182479960577828,-0.012698287963867188,-0.11189028569630215,-0.08700674874441965,-0.003629150390625,12.955317905970983,34.24456024169922,-4.846976143973214,50.75,-19.5,31.75,-13.670625,5.894682,33.05,1
0.9114068583079746,-0.013573713643210274,-0.09465257338115148,0.0316845703125,-0.0018190220424107143,12.946847098214286,34.24429702758789,-3.199489048549107,50.125,-20.125,31.25,-5.001875,5.929222,33.03,1
0.9176845727648054,-0.026711999007633755,-0.08610742773328509,-0.021032278878348215,-0.003907732282366071,12.960518973214286,34.242897033691406,-1.2129255022321428,50.5,-20.0,31.375,15.798749999999998,5.927943,33.03,1
0.9074605710165842,-0.0021291453497750417,-0.11917485748018537,-0.050038539341517856,-0.003149937220982143,12.962770734514509,34.24625015258789,0.40568324497767855,51.125,-19.625,31.0,34.341875,5.944573,33.03,1
0.9086765725272042,-0.028961145196642193,-0.11862400088991437,-0.0264056396484375,-0.0032600620814732142,12.947296142578125,34.247989654541016,2.297816685267857,51.0,-19.75,31.0,-7.325625,5.935618,33.03,1
0.9106685720171247,-0.019080001286097936,-0.1187702853339059,0.04383100237165179,-0.0029940359933035713,12.955616542271205,34.24641036987305,3.6434762137276784,51.0,-20.0,31.0,-7.796250000000001,5.940735,33.0,1
0.906427434512547,-0.023443431173052108,-0.12652457237243653,-0.024248395647321428,-0.0030662318638392857,12.956266130719866,34.245357513427734,4.730320521763393,51.125,-20.0,30.25,0.6387499999999999,5.939456,33.0,1
0.908108570916312,-0.03413371597017561,-0.13336342811584473,0.049757341657366075,-0.003137642996651786,12.940658569335938,34.25010681152344,5.285208565848214,51.125,-20.0,30.25,-27.68,5.948411,33.0,1
0.9086708545684814,-0.04449485676629203,-0.12457257270812988,-0.07466988699776786,-0.0026620919363839284,12.95155770438058,34.25054931640625,5.815996442522321,51.625,-19.375,30.5,-13.71,5.939456,33.0,1
0.9091154296057565,-0.045530284132276264,-0.12296914202826363,0.022252022879464286,-0.003387974330357143,12.940076555524554,34.25093078613281,6.149588448660714,51.625,-19.0,30.5,8.08625,5.938177,33.03,1
0.9124937166486468,-0.043642283848353794,-0.10331542764391217,0.10542742047991072,-0.0036281040736607143,12.933266775948661,34.25431823730469,4.845955984933036,51.5,-19.0,30.625,3.3581250000000002,5.936898,33.03,1
0.9137017216001239,-0.0388445748601641,-0.09167199986321585,0.06894339425223214,-0.0037105015345982144,12.939328874860491,34.255855560302734,2.4633091517857144,51.375,-19.375,30.875,2.028125,5.930501,33.03,1
0.9117885657719204,-0.03792914152145386,-0.09221028532300676,-0.028428431919642855,-0.0030010986328125,12.925798688616071,34.259315490722656,-0.024945940290178572,51.375,-19.25,30.875,6.64375,5.924105,33.03,1
0.9131348548616682,-0.038707427978515625,-0.08540228639330183,-0.027699672154017856,-0.0027259172712053572,12.931880405970983,34.26040267944336,-2.3391898018973216,51.25,-19.375,30.5,-11.2775,5.913871,33.03,1
0.9128251429966517,-0.042460572378976005,-0.09324343034199306,0.004782976422991071,-0.0031692940848214285,12.933077130998884,34.26002883911133,-4.169730050223214,51.75,-19.0,30.125,-4.144375,5.920268,33.03,1
0.9126205723626273,-0.04275428465434483,-0.09735428469521659,-0.05471400669642857,-0.0028182547433035715,12.919762747628349,34.26169967651367,-5.53265380859375,51.75,-19.0,30.375,-6.826875,5.91643,33.03,1
0.9126731443405152,-0.03978171723229545,-0.0958000009400504,0.00027779715401785715,-0.0035174560546875,12.912748064313616,34.2615966796875,-6.417585100446429,51.5,-19.0,30.875,-12.950000000000001,5.921546,33.03,1
0.9128057105200631,-0.039827429226466586,-0.0970137129511152,0.06809797014508928,-0.0029848807198660714,12.916619437081474,34.262577056884766,-6.701851981026786,51.75,-19.0,30.625,14.247499999999999,5.910033,33.03,1
0.9114102854047503,-0.04394856997898647,-0.10237371615001134,0.043405674525669645,-0.002646920340401786,12.921092442103795,34.266353607177734,-6.275259835379464,52.0,-18.875,30.375,5.893750000000001,5.91515,33.03,1
0.9109737151009696,-0.04977714232036046,-0.1085405707359314,-0.09441048758370536,-0.003057861328125,12.91573006766183,34.2642707824707,-5.420479910714286,51.875,-19.0,30.375,-15.09625,5.902358,33.03,1
0.9126400000708443,-0.048028571265084405,-0.10649828672409058,-0.02756312779017857,-0.002552490234375,12.903126307896205,34.26548767089844,-4.598589215959821,51.875,-19.0,30.5,19.385624999999997,5.904916,33.03,1
0.9116559995923723,-0.047467427253723146,-0.10519885471888951,0.11389264787946428,-0.0031436593191964284,12.899418422154017,34.266029357910156,-3.6200735909598216,52.0,-19.0,30.625,21.54,5.893403,33.03,1
0.9121931430271694,-0.049556571756090434,-0.10090514523642403,-0.0167724609375,-0.0030549839564732143,12.909665788922991,34.265872955322266,-2.6879185267857144,52.0,-19.0,30.625,-2.666874999999999,5.893403,33.03,1
0.9115600034168788,-0.04957828555788313,-0.10582057101385935,-0.068507080078125,-0.0029903738839285716,12.905299595424108,34.267913818359375,-1.7277134486607142,52.0,-19.0,30.75,-24.980625,5.888286,33.03,1
0.9126365716116769,-0.0494400007384164,-0.10227542911257062,-0.030466657366071428,-0.002548828125,12.89387948172433,34.26570129394531,-0.8836757114955357,52.0,-19.0,30.5,13.0925,5.879332,33.03,1
0.9126925713675362,-0.0486182849747794,-0.0993828569139753,0.026798008510044644,-0.002274954659598214,12.887176513671875,34.26477813720703,-0.08984375,52.0,-18.875,30.75,9.122499999999999,5.88061,33.0,1
0.9123051398141043,-0.04786514214106968,-0.09635085650852748,0.0426690673828125,-0.0036349051339285713,12.896194458007812,34.26773452758789,0.5232892717633929,51.875,-19.0,30.75,-1.8581250000000002,5.876773,33.0,1
0.9118971456800188,-0.047073141506740024,-0.10125942707061768,-0.030056239536830356,-0.00325927734375,12.892671857561384,34.263946533203125,1.0300641741071428,51.625,-19.0,30.375,-16.665625,5.874214,33.0,1
0.9123759978158134,-0.0464937162399292,-0.10208114215305873,-0.04203342982700893,-0.0030337960379464286,12.878003801618304,34.26853942871094,1.2563650948660714,51.75,-19.0,30.625,9.275625,5.862701,33.0,1
0.9131908573423113,-0.04509714433125087,-0.09647885492869786,0.06605869838169642,-0.002713623046875,12.878306797572545,34.27079772949219,1.2579607282366072,51.75,-19.0,30.5,12.805,5.86398,33.0,1
0.9111565698896136,-0.044708570752825055,-0.10180228165217808,0.043569423130580355,-0.0031868198939732145,12.883224487304688,34.26393508911133,1.3281075613839286,51.625,-19.0,30.5,-4.38125,5.855026,33.0,1
0.9121188586098807,-0.046137143884386334,-0.10405028547559465,-0.08041469029017857,-0.0031473214285714286,12.877288818359375,34.266990661621094,1.428466796875,51.75,-19.0,30.625,-15.48,5.820486,33.0,1
0.9116102838516236,-0.04356914418084281,-0.10251428604125977,0.1120001220703125,-0.0035101318359375,12.864534650530134,34.26686477661133,1.1661638532366072,51.75,-19.0,30.625,1.3837500000000003,5.842233,33.0,1
0.9125828579493931,-0.043600001335144044,-0.10222057240349906,-0.05039167131696429,-0.0026053292410714284,12.873753138950892,34.26742935180664,0.9153180803571429,51.5,-19.0,30.875,9.04625,5.838395,33.03,1
0.9109611409051078,-0.044489143916538784,-0.1070948566709246,-0.058837541852678574,-0.0030453055245535715,12.866465977260045,34.26753234863281,0.89813232421875,52.0,-19.0,30.75,0.7325,5.835837,33.03,1
0.9115702894755772,-0.04533599853515625,-0.1064799986566816,-0.0008671351841517857,-0.0027120535714285714,12.852687290736608,34.265445709228516,0.9137398856026786,51.75,-19.0,30.375,-12.540625,5.821765,33.03,1
0.9124777180807931,-0.04616457257952009,-0.10275428601673671,0.036222708565848215,-0.003369140625,12.85986328125,34.26792526245117,0.9983694893973214,51.875,-19.0,30.5,3.5318750000000003,5.83072,33.03,1
0.9118537133080619,-0.04601600136075701,-0.10189028603690012,-0.026808994838169644,-0.0032247488839285713,12.859499250139509,34.269012451171875,0.9905918666294643,51.875,-19.0,30.375,1.618125,5.828161,33.03,1
0.9126651430130005,-0.04319657393864223,-0.09820799997874669,-0.01943141392299107,-0.0029825265066964284,12.845559256417411,34.270694732666016,1.0211617606026786,51.75,-19.0,30.375,-7.396249999999999,5.828161,33.03,1
0.9123954282488141,-0.04197257280349732,-0.0913291427067348,0.008821236746651785,-0.0029440743582589287,12.851329258510045,34.26777648925781,1.4317714146205358,51.875,-19.0,30.5,2.585,5.817927,33.03,1
0.9126857192175729,-0.04304685865129743,-0.09542171205793108,0.03184988839285714,-0.0027149309430803572,12.855187552315849,34.27047348022461,2.3449271065848216,51.75,-19.0,30.375,3.5949999999999998,5.816648,33.03,1
0.9122137117385865,-0.04322628668376378,-0.09946857043675014,-0.061284354073660716,-0.0031559535435267856,12.84708731515067,34.27041244506836,3.1963675362723216,51.625,-19.0,30.375,-7.784999999999999,5.810252,33.0,1
0.9108537142617362,-0.04378514460154942,-0.09537142787660871,0.07847848074776785,-0.002353690011160714,12.839669363839286,34.27215576171875,3.701878138950893,51.5,-19.0,30.625,-3.0306249999999997,5.820486,33.0,1
0.912998856816973,-0.04366514308112008,-0.09420342717851911,-0.0015208217075892857,-0.003548060825892857,12.853877476283483,34.271183013916016,4.043169294084821,51.625,-19.0,30.875,6.51875,5.814089,33.0,1
0.9114422839028494,-0.04239314385822841,-0.09731885739735195,-0.005097917829241071,-0.0033814348493303573,12.848331996372767,34.27292251586914,3.933628627232143,51.375,-19.0,30.5,-1.3806249999999998,5.811531,33.0,1
0.9127611419132777,-0.04102171318871634,-0.09321257489068167,0.02015049525669643,-0.0030031912667410716,12.838145664760045,34.275672912597656,2.9062674386160716,51.375,-19.125,30.875,-10.366875,5.806414,33.03,1
0.91377142565591,-0.041434283937726704,-0.08748114449637277,-0.0012961251395089285,-0.00303955078125,12.846960885184151,34.27368927001953,1.4352155412946428,51.625,-19.0,30.875,7.475625,5.792342,33.03,1
0.9128422839300973,-0.042928001540047785,-0.09503657034465245,0.019137398856026784,-0.003087942940848214,12.84724862234933,34.27614974975586,0.027736118861607144,51.5,-19.0,30.75,5.015625,5.798738,33.03,1
0.9126068537575858,-0.04168571438108172,-0.09784343038286482,-0.05058314732142857,-0.0030029296875,12.836207798549108,34.27814865112305,-1.113525390625,51.5,-19.125,30.5,-11.385625,5.79618,33.03,1
0.9128799956185477,-0.041542857033865795,-0.09365714277539934,0.003103114536830357,-0.0034293038504464284,12.830208914620536,34.27842712402344,-1.9468558175223214,51.5,-19.0,31.0,1.9600000000000004,5.797459,33.03,1
0.9126811402184623,-0.04152571473802839,-0.09156342881066458,0.04972856794084821,-0.002921578543526786,12.836499895368304,34.28042221069336,-2.3106863839285716,51.75,-19.0,30.75,9.57125,5.794901,33.03,1
0.9129519987106324,-0.043777141571044925,-0.0921725709097726,0.016022251674107143,-0.003236258370535714,12.840809413364955,34.27705383300781,-2.2290736607142856,51.625,-19.0,30.75,-0.98875,5.793622,33.03,1
0.9113085726329259,-0.04215885809489659,-0.09828799724578857,-0.07913870675223214,-0.0034792654854910714,12.829544067382812,34.276756286621094,-1.9262520926339286,51.75,-19.0,31.0,-4.96625,5.783388,33.03,1
0.9133828551428659,-0.04313943113599505,-0.09544914449964251,-0.015935145786830356,-0.0030010986328125,12.819503784179688,34.28112030029297,-1.5934535435267858,51.25,-19.0,31.0,13.350625,5.787225,33.05,1
0.9128171403067452,-0.04252457346235003,-0.09091656991413662,0.06762032645089286,-0.002500435965401786,12.814736502511161,34.27849197387695,-1.2774483816964286,51.625,-19.0,31.0,9.910625,5.789784,33.05,1
0.9125588553292411,-0.04280000005449568,-0.09350514241627285,0.011604701450892856,-0.00355224609375,12.829533168247767,34.28302001953125,-1.0818307059151786,51.375,-19.0,31.0,-5.681875,5.782108,33.05,1
0.9115371404375349,-0.04079199995313372,-0.09801828452519008,-0.0286285400390625,-0.0031373814174107144,12.828630719866071,34.28241729736328,-0.8797694614955357,51.125,-19.0,31.0,-20.176875,5.778271,33.05,1
0.9120137119293212,-0.04199657440185547,-0.09800571577889579,-0.03593758719308036,-0.003158046177455357,12.817864554268974,34.2830696105957,-0.7719813755580357,51.375,-19.0,31.0,13.44875,5.76164,33.03,1
0.9127359989711217,-0.04334857429776873,-0.09438743250710624,0.023106863839285716,-0.002925502232142857,12.814934866768974,34.282447814941406,-0.6663033621651786,51.875,-19.0,30.875,19.1725,5.769316,33.03,1
0.913543998173305,-0.04474742821284703,-0.08836342675345285,0.02925319126674107,-0.0031964983258928573,12.821326119559151,34.28266143798828,-0.41448974609375,51.625,-19.0,30.875,4.098125,5.766757,33.03,1
0.913813717024667,-0.04298857348305839,-0.08427428654261998,0.026575404575892858,-0.0030471365792410715,12.824085780552455,34.281524658203125,0.0771484375,51.75,-19.0,30.75,-18.066875,5.766757,33.03,1
0.9133485725947789,-0.04064342941556658,-0.08389142751693726,-0.08732613699776785,-0.0030570765904017858,12.813609531947545,34.280914306640625,0.6647426060267857,51.5,-19.0,30.875,-0.9931250000000005,5.759082,33.0,1
0.9138434287479945,-0.040254860605512345,-0.08433485644204276,-0.02050048828125,-0.0031747872488839288,12.80902099609375,34.2814826965332,1.2197091238839286,51.5,-19.0,31.0,14.398125,5.766757,33.0,1
0.9144194255556379,-0.03818971429552351,-0.0843702861240932,0.07787004743303572,-0.002896205357142857,12.8140869140625,34.28314208984375,2.0560128348214284,51.75,-19.0,31.0,5.366874999999999,5.755244,33.0,1
0.9111211429323469,-0.04233942951474871,-0.09156114203589304,0.04548104422433036,-0.0031002371651785714,12.823911394391741,34.28280258178711,3.151027134486607,51.375,-19.0,30.875,-12.031875,5.76164,33.0,1
0.911898285320827,-0.04619199889046805,-0.0921554296357291,-0.0582659912109375,-0.0030277797154017855,12.813934326171875,34.28386688232422,3.9135306222098216,51.625,-19.125,30.625,-17.220625,5.757802,33.0,1
0.9141942828042167,-0.05121142966406686,-0.09286742653165544,0.017320469447544642,-0.003384573800223214,12.802222115652901,34.285919189453125,3.482142857142857,51.875,-19.0,30.5,14.945625,5.769316,33.0,1
0.9107942874091012,-0.045089144366128105,-0.101113144329616,0.04015712193080357,-0.0028865269252232144,12.809812273297991,34.28383255004883,2.22796630859375,52.0,-18.75,30.875,11.798124999999999,5.776991,33.0,1
0.9105028561183385,-0.04729714393615723,-0.11228800126484462,0.042231968470982144,-0.0032676478794642855,12.817034040178571,34.28810119628906,0.5537283761160714,51.375,-19.0,30.875,-4.233125,5.77955,33.0,1
0.9097977195467267,-0.04709485735212054,-0.11912914310182844,-0.07463091169084822,-0.002932041713169643,12.808478219168526,34.286460876464844,-1.2076067243303572,51.875,-18.875,31.0,-4.89625,5.782108,33.0,1
0.9114182840074811,-0.047517713819231304,-0.11675199917384556,0.011265171595982143,-0.003329380580357143,12.804537091936384,34.2909049987793,-2.664515904017857,51.5,-19.0,31.0,20.2325,5.77955,33.0,1
0.9093897192818778,-0.05302628789629255,-0.10025600058691843,0.016904296875,-0.0024345179966517856,12.815889630998884,34.290122985839844,-3.1900547572544644,51.875,-19.0,30.5,-7.2375,5.776991,33.0,1
0.9165382875714984,-0.06892342908041818,-0.10692228760038103,0.027425013950892856,-0.003234950474330357,12.821038382393974,34.29104232788086,-2.950169154575893,51.625,-19.125,30.5,-20.783125,5.765478,33.0,1
0.9211622898919242,-0.04832228422164917,-0.08711085830415999,-0.06717878069196428,-0.0028658621651785716,12.808759416852679,34.290855407714844,-2.6488734654017856,51.125,-19.375,30.875,-21.07,5.766757,32.99,1
0.9168937158584595,-0.025638857228415354,-0.09638514348438808,0.00024300711495535714,-0.003029349190848214,12.80332510811942,34.2939453125,-2.00140380859375,50.375,-20.5,31.0,9.395624999999999,5.755244,32.99,1
0.9037657151903425,-0.028153143269675118,-0.09736914328166417,0.005465436662946428,-0.0028145926339285714,12.814638410295759,34.29469299316406,-0.3697596958705357,50.625,-21.25,30.0,2.36125,5.756523,32.99,1
0.9088754313332694,-0.05179314306804112,-0.08521714312689645,0.007819911411830357,-0.0031635393415178573,12.822191510881696,34.29098892211914,1.98138427734375,51.5,-21.0,27.625,-13.388125,5.762919,32.99,1
0.9069931432179043,-0.06165599822998047,-0.10496228456497192,-0.06377144949776786,-0.0032864815848214286,12.809491838727679,34.291709899902344,4.123988560267857,54.0,-19.875,25.75,-23.5775,5.743731,32.99,1
0.9133988530295236,-0.10250056913920812,-0.10760342972619193,0.07229527064732143,-0.0030680629185267858,12.807283673967634,34.29148864746094,5.325047084263393,56.0,-16.375,24.0,33.35875,5.706633,32.99,1
0.9148034293310983,-0.11197828599384853,-0.14114743062428065,0.048201468331473214,-0.003115670340401786,12.821206229073661,34.287479400634766,6.179983956473214,57.25,-15.25,22.125,30.198125000000005,5.576149,32.99,1
0.9045017160688128,-0.10628571510314941,-0.1079965707233974,-0.06352948869977679,-0.003124302455357143,12.815198625837054,34.29373550415039,7.434300013950893,56.875,-14.625,22.25,-7.48875,5.52242,32.99,1
0.9130400003705705,-0.09078857387815203,-0.1021062867982047,0.04148725237165179,-0.002934395926339286,12.812748500279017,34.29410171508789,8.172694614955358,56.875,-14.375,22.75,-21.778125,5.490439,32.99,1
0.910514281136649,-0.0907771451132638,-0.11131314277648925,0.03213082449776786,-0.003210100446428571,12.821143014090401,34.29058074951172,7.390468052455357,57.0,-14.875,23.0,-7.801875000000001,5.494277,32.99,1
0.9105405752999441,-0.09370857306889126,-0.11381257091249739,-0.045359409877232144,-0.0028412737165178573,12.809810093470983,34.29142761230469,5.436288016183036,57.0,-14.75,23.0,-1.5993750000000002,5.482763,32.99,1
0.910750857761928,-0.09564914464950562,-0.10957371371132987,-0.019278128487723215,-0.0032265799386160714,12.813276018415179,34.29024887084961,3.2947562081473216,57.0,-14.875,22.5,-4.72,5.480205,32.99,1
0.9111828565597534,-0.09600342954908099,-0.115538284437997,0.019107578822544644,-0.0029286411830357142,12.814049857003349,34.29460906982422,1.4362531389508928,57.0,-15.0,22.0,21.73625,5.464854,32.97,1
0.9111965697152274,-0.09419657264436994,-0.11475771359034947,-0.029777919224330356,-0.0031972830636160716,12.797483171735491,34.29262924194336,-0.22625732421875,57.0,-14.875,22.125,7.0425,5.467412,32.97,1
0.9119691460473197,-0.09422971827643259,-0.11039999859673637,0.004394008091517857,-0.0032333809988839284,12.804901123046875,34.29388427734375,-1.7280186244419642,57.0,-14.375,22.125,-19.061875,5.466133,32.97,1
0.9091108560562133,-0.0953542869431632,-0.11485485519681658,-0.0018977573939732142,-0.0031138392857142858,12.804173060825892,34.292903900146484,-2.779881068638393,57.0,-14.375,22.0,12.748750000000001,5.459737,32.97,1
0.9099965674536569,-0.09536685568945749,-0.12142742872238159,-0.019324951171875,-0.0032828194754464285,12.789884294782366,34.295658111572266,-3.7298671177455356,57.0,-14.25,22.0,7.5375,5.463891,32.97,1
0.9106971434184483,-0.09551428488322666,-0.12102399928229196,0.021420200892857143,-0.0030453055245535715,12.797834123883929,34.29655075073242,-4.831638881138393,57.0,-14.0,22.0,-6.36125,5.44982,32.97,1
0.9084297166551862,-0.09696228436061315,-0.1263280017035348,-0.0053799002511160715,-0.003256923130580357,12.793524605887276,34.29604721069336,-5.637486049107143,57.125,-14.0,22.0,14.275625,5.452378,32.97,1
0.9103508574622018,-0.09426400082451956,-0.12452000073024205,-0.02248378208705357,-0.003154384068080357,12.775966099330358,34.29512405395508,-6.117527553013393,57.125,-14.0,22.0,0.6800000000000002,5.435748,32.97,1
0.9102205685206822,-0.09238857235227313,-0.12027428422655378,0.043472638811383926,-0.0030926513671875,12.778078351702009,34.29665756225586,-6.344717843191964,57.0,-14.0,22.0,-2.7393749999999994,5.43191,32.99,1
0.9115897137778146,-0.09120914220809936,-0.12117942912237985,0.033578404017857146,-0.0035577392578125,12.781749180385045,34.29452133178711,-6.203369140625,57.0,-14.0,22.0,5.313124999999999,5.421676,32.99,1
0.9098114279338292,-0.09142171485083443,-0.12401028667177473,-0.06453526088169644,-0.003198590959821429,12.770688738141741,34.29487991333008,-5.762468610491071,57.0,-14.0,22.0,-7.9593750000000005,5.424234,32.99,1
0.9105005707059588,-0.09096914257322039,-0.12023314203534807,0.01905421665736607,-0.0029116385323660716,12.761400495256696,34.29490661621094,-4.9539794921875,57.0,-14.125,22.0,-2.3500000000000005,5.408883,32.99,1
0.9125280026027135,-0.09281257016318185,-0.1130811425617763,0.029919695172991072,-0.0032754952566964287,12.77073233468192,34.296287536621094,-3.9167654854910716,57.0,-14.375,22.0,8.129375,5.406325,32.97,1
0.9028319958278112,-0.08960228511265346,-0.14631200211388723,0.026703316824776786,-0.0032932826450892856,12.775279453822545,34.29695510864258,-2.6356113978794644,57.0,-14.375,22.0,-4.3568750000000005,5.401208,32.97,1
0.9133851419176374,-0.0952422867502485,-0.11085371119635445,-0.025517578125,-0.0032650320870535716,12.759580339704241,34.29358673095703,-1.6744210379464286,57.0,-14.25,22.125,-11.991875,5.385857,32.97,1
0.9114548540115357,-0.09483771596636091,-0.10563428401947021,0.09613115583147322,-0.0025666155133928573,12.753550938197545,34.29570007324219,-0.7553798130580357,57.0,-14.0,22.75,10.761875,5.384578,32.97,1
0.9132697200775146,-0.09525943006787982,-0.10842400005885533,-0.012935355050223214,-0.0033516148158482142,12.760990687779017,34.29574203491211,0.6624668666294643,57.0,-14.125,22.875,5.463125,5.383298,32.99,1
0.9074559947422572,-0.09498171738215855,-0.11403999839510237,-0.09130397251674108,-0.0029788643973214287,12.753415788922991,34.293731689453125,1.44110107421875,56.875,-14.125,23.0,-5.253125000000001,5.394812,32.99,1
0.9121028593608311,-0.09692228623798915,-0.1207554268836975,-0.007270333426339285,-0.0031203787667410713,12.741117204938616,34.29152297973633,1.1563807896205358,56.75,-14.25,23.125,-13.543125,5.39737,32.99,1
0.9095885733195713,-0.09937714236123221,-0.12207314355032785,0.02420078822544643,-0.0029608154296875,12.750664847237724,34.2948112487793,0.06551688058035714,56.75,-14.5,23.25,12.276250000000001,5.419117,32.99,1
0.9084354271207536,-0.09729028701782226,-0.13126514366694858,-0.026620396205357142,-0.0034834507533482145,12.747990199497767,34.29512405395508,-1.4324428013392858,56.375,-14.875,24.0,6.1000000000000005,5.429351,32.99,1
0.9121474259240286,-0.09304342985153198,-0.12992571660450528,-0.02683462960379464,-0.003553292410714286,12.730954851422991,34.29532241821289,-2.9006522042410716,56.0,-14.75,24.875,-8.386875,5.463891,32.99,1
0.9089108542033604,-0.0867234298161098,-0.12287428719656808,0.05210501534598214,-0.0031656319754464284,12.730584280831474,34.295753479003906,-3.944920131138393,55.375,-15.5,25.5,5.97875,5.474125,32.99,1
0.9072982842581613,-0.08754171507699149,-0.11251657111304147,0.04610334123883929,-0.0031546456473214284,12.735892159598214,34.29758834838867,-4.160365513392857,54.5,-16.5,26.0,4.47875,5.500989,32.99,1
0.9122731426783971,-0.08800571407590593,-0.11270057201385499,-0.07797938755580357,-0.003025425502232143,12.729452950613839,34.296180725097656,-3.519505092075893,54.625,-17.0,26.25,-14.00875,5.512503,32.97,1
0.9123588568823678,-0.07651657342910767,-0.10922971452985492,0.016830531529017857,-0.003102329799107143,12.719133649553571,34.29862594604492,-2.0959647042410716,54.0,-17.5,26.75,-9.714375,5.531692,32.97,1
0.9118548597608294,-0.07570857354572841,-0.10310742855072022,0.0103546142578125,-0.0032053920200892858,12.728628976004464,34.300010681152344,-0.020429338727678572,53.625,-18.0,27.125,1.993125,5.507386,32.97,1
0.9091554280689784,-0.0840811436516898,-0.1014765705381121,0.018812255859375,-0.0035430908203125,12.733433314732142,34.298553466796875,1.8214024135044642,53.5,-18.625,27.875,-5.10125,5.518899,32.97,1
0.9192765726361956,-0.1099622859273638,-0.0784582839693342,-0.017712838309151786,-0.0025632149832589286,12.709699358258929,34.30006408691406,3.28118896484375,52.25,-19.25,29.5,-12.804375,5.536808,32.99,1
0.9157245690482003,0.002145141192844936,-0.08132914338793074,-0.023949410574776786,-0.0032867431640625,12.712391444614955,34.30305099487305,4.369114467075893,49.75,-19.75,32.75,11.603124999999999,5.632752,32.99,1
0.9024617086138044,-0.018801142147609164,-0.10183314153126308,0.069437255859375,-0.002567661830357143,12.712406703404017,34.30143356323242,4.279227120535714,48.75,-20.875,32.375,9.346875,5.66985,32.99,1
0.9062308583940778,-0.09909371478216988,-0.06533485889434815,0.02009425571986607,-0.003526088169642857,12.694410051618304,34.30180358886719,3.1999075753348216,50.5,-20.25,29.75,-7.748749999999999,5.683922,32.99,1
0.9272548573357718,-0.11882514442716326,-0.08835771458489554,-0.03936741420200893,-0.00275390625,12.699225289481026,34.305118560791016,3.5457240513392856,54.125,-16.375,29.5,-10.246875,5.686481,33.0,1
0.9135599974223546,-0.08919314214161464,-0.0914057149205889,-0.007965349469866071,-0.003130580357142857,12.700914655412946,34.30523681640625,5.08917236328125,54.25,-15.25,28.5,33.199375,5.705669,33.0,1
0.9116514314923968,-0.07724685634885516,-0.09600228479930333,-0.059790213448660715,-0.003242013113839286,12.675694056919642,34.30704116821289,5.952218191964286,53.625,-15.5,29.125,18.66125,5.708228,33.0,1
0.909987427847726,-0.06753485679626464,-0.11755200045449393,-0.005097917829241071,-0.0033270263671875,12.674787248883929,34.30721664428711,4.393144880022321,58.5,-15.25,25.5,3.8137499999999998,5.705669,33.0,1
0.9047359997885568,-0.06202399730682373,-0.14983200107301983,0.027367204938616073,-0.0029775565011160715,12.676797049386161,34.30942153930664,2.2578822544642856,60.125,-8.5,-4.0,-11.440625,5.682643,33.0,1
0.9072697169440134,-0.06569028547831944,-0.15384571654456003,0.0076373291015625,-0.002706560407366071,12.657405308314733,34.30821990966797,0.7380807059151786,63.0,-1.5,-0.875,-31.01125,5.60205,33.0,1
0.9064365693501064,-0.058073142596653526,-0.15419542687279839,-0.0008153424944196429,-0.0026092529296875,12.659188406808036,34.309146881103516,-0.52166748046875,62.625,0.5,8.625,-25.7125,5.567511,33.0,1
0.9034937156949725,-0.06087771586009434,-0.17756000110081263,0.03362758091517857,-0.003950631277901785,12.662294660295759,34.3098258972168,-1.9836338588169642,63.875,-1.875,1.125,15.161875000000002,5.596933,33.0,1
0.9014159972327096,-0.048790857791900635,-0.1833177137374878,-0.05282461983816964,-0.0022331019810267858,12.646783011300224,34.30849838256836,-3.3720005580357144,60.875,-4.5,-13.75,23.018125,5.593095,32.99,1
0.8991782876423428,-0.04746514524732317,-0.1850674285207476,0.04437325613839286,-0.003274448939732143,12.643195016043526,34.310333251953125,-3.9725341796875,62.375,1.125,-11.25,-36.36125,5.595654,32.99,1
0.9040731368746077,-0.0527188583782741,-0.16581828696387155,0.07744524274553571,-0.002663138253348214,12.650469098772321,34.31145477294922,-3.7348720005580356,60.625,0.625,-10.625,16.665625,5.567511,32.99,1
0.9052457121440343,-0.06950742925916399,-0.17324685505458287,-0.08751264299665179,-0.0030481828962053573,12.643689836774554,34.312721252441406,-2.41217041015625,62.875,-3.625,-11.125,10.2075,5.581582,32.99,1
0.9044845717293876,-0.07583543028150286,-0.1654205744607108,0.01707981654575893,-0.002899605887276786,12.638475690569196,34.31299591064453,-0.9484427315848214,61.625,-5.75,-12.875,1.31,5.599492,32.99,1
0.906691426549639,-0.06296571561268398,-0.1576434302330017,0.07167951311383929,-0.0026471819196428573,12.644258771623884,34.311012268066406,-0.6859130859375,61.75,-7.375,-13.0,2.203125,5.604609,32.99,1
0.9043919944763184,-0.05973600046975272,-0.15988456896373204,-0.06912545340401785,-0.0024151611328125,12.635025024414062,34.31365966796875,-1.8218296595982142,61.125,-7.5,-14.625,6.476875,5.590537,32.99,1
0.9054994317463466,-0.05697028534752982,-0.15827542645590645,0.0009058489118303571,-0.003347952706473214,12.635432652064733,34.314334869384766,-3.418605259486607,60.875,-6.25,-14.25,-19.424374999999998,5.587978,32.99,1
0.905746282168797,-0.059022857802254816,-0.1596262846674238,0.06612932477678571,-0.0033170863560267856,12.64304678780692,34.31624221801758,-4.272495814732143,61.25,-6.5,-11.625,23.590625,5.579024,32.99,1
0.9051645735331945,-0.055114282539912636,-0.16037371601377215,-0.09810764857700893,-0.0042354910714285715,12.634445190429688,34.313846588134766,-4.242518833705357,62.875,-6.625,-7.125,-8.86,5.563673,32.99,1
0.9024365718024118,-0.06460000310625348,-0.16385485649108886,0.07686165945870535,-0.0019265311104910714,12.625588553292411,34.313785552978516,-3.68853759765625,61.875,-8.375,3.0,-2.5012499999999998,5.55088,32.99,1
0.907953142438616,-0.05849142721721104,-0.1565577139173235,0.045609479631696426,-0.0035402134486607144,12.635674612862724,34.315250396728516,-2.6055385044642856,61.625,-9.0,5.875,5.7737500000000015,5.535529,32.99,1
0.904524574960981,-0.0595828560420445,-0.15632114342280798,-0.09253182547433035,-0.0033913748604910716,12.635652814592634,34.31311798095703,-1.4896240234375,62.75,-10.25,5.375,-15.99125,5.526575,32.97,1
0.9091908577510289,-0.06311428717204502,-0.14635314396449497,-0.005117536272321428,-0.0019992501395089284,12.61728995186942,34.313114166259766,-0.9708513532366071,62.125,-6.75,4.875,-10.323125,5.540646,32.97,1
0.9067691387448992,-0.06723657335553851,-0.14037028755460468,-0.015004185267857142,-0.0035488455636160715,12.624997820172991,34.3170051574707,-0.32198660714285715,63.25,-8.375,6.375,39.244375,5.544484,32.97,1
0.9080594267163958,-0.07334856986999512,-0.14209028584616526,0.024739641462053572,-0.0030010986328125,12.631138392857142,34.315425872802734,1.2401471819196428,60.375,-4.625,10.25,-6.414375000000001,5.536808,32.97,1
0.9085120037623814,-0.0604697162764413,-0.1485142867905753,-0.028382655552455355,-0.0020463344029017856,12.618953159877233,34.315921783447266,3.2757132393973216,62.25,-4.875,12.125,-4.159375,5.548322,32.99,1
0.9052971410751343,-0.07882857186453683,-0.15271085466657366,0.06243504115513393,-0.0029825265066964284,12.623622349330358,34.318626403808594,5.224016462053571,62.0,-4.75,10.5,7.775625,5.51762,32.99,1
0.9059154285703387,-0.07938171659197125,-0.16007085868290494,0.058938511439732146,-0.002306082589285714,12.63285391671317,34.316680908203125,6.551871163504464,62.75,-2.5,9.75,-2.815625,5.511223,32.99,1
0.9042617171151297,-0.08619885955538069,-0.16398742982319423,-0.07102137974330357,-0.0032828194754464285,12.626190185546875,34.316471099853516,6.028433663504464,62.0,-2.25,10.75,-23.99,5.51634,32.99,1
0.9056479985373361,-0.06222057274409703,-0.16251543181283135,0.020171683175223214,-0.003079310825892857,12.62200927734375,34.315673828125,3.9073660714285716,62.375,-1.5,10.625,3.0600000000000023,5.51762,32.99,1
0.9055897154126848,-0.06516457080841065,-0.16106742688587733,0.04521998814174107,-0.0032093157087053573,12.626826695033483,34.31520462036133,1.3773542131696428,61.625,-4.25,9.5,103.66499999999999,5.529133,32.99,1
0.9058914266313826,-0.063606858253479,-0.15496342761175974,-0.08356175013950892,-0.003800746372767857,12.617462158203125,34.315704345703125,-0.5270908900669643,63.0,-4.25,8.375,28.336875,5.495872,32.99,1
0.9078685706002372,-0.05806400060653687,-0.15173600094658987,0.04890171595982143,-0.003869541713169643,12.607975551060267,34.313270568847656,-1.6246337890625,62.0,-4.75,8.5,-127.380625,5.481801,32.99,1
0.9046502842221942,-0.06591085842677526,-0.14980685779026576,0.048318917410714285,-0.0030283028738839284,12.613956996372767,34.31583023071289,-2.0606166294642856,62.75,-3.5,9.375,4.758125,5.485639,32.97,1
0.9071302890777588,-0.07562285593577793,-0.15557485750743322,-0.07244097028459821,-0.002827671595982143,12.610663277762276,34.3145637512207,-2.0604073660714284,61.5,-8.375,12.5,-25.426250000000003,5.498431,32.97,1
0.9076297126497541,-0.07016342878341675,-0.15574400050299508,0.06811837332589285,-0.0030680629185267858,12.601340157645089,34.3126106262207,-2.022365025111607,66.0,-2.875,-1.125,7.484374999999998,5.522737,32.97,1
0.9040365723201207,-0.06345028775078909,-0.157518858228411,-0.009341256277901786,-0.0034120396205357144,12.61265127999442,34.31206130981445,-1.4315708705357142,59.625,-0.25,7.875,181.10500000000002,5.673688,32.97,1
0.907238860811506,-0.0772285727092198,-0.1535211433683123,-0.0697686767578125,-0.0027939278738839286,12.609095982142858,34.31191635131836,-0.5792236328125,60.0,0.25,19.125,-125.59687499999998,5.745327,32.97,1
0.9083497176851545,-0.06906285762786865,-0.14523886033466885,0.1012060546875,-0.003027518136160714,12.595609392438616,34.31235885620117,0.17917306082589285,61.75,2.25,7.375,-178.82875,5.747885,32.97,1
0.9082662827628,-0.06971771376473564,-0.14035314525876727,-0.06306047712053571,-0.0026552908761160714,12.610907418387276,34.31362533569336,1.4974452427455358,63.75,-9.25,-0.625,-21.785000000000004,5.625077,32.97,1
0.9045588547842843,-0.07074057170322963,-0.15212342739105225,-0.012622506277901785,-0.003454677036830357,12.608810424804688,34.31272888183594,2.9132777622767856,50.5,-14.25,32.625,-18.548750000000002,5.635311,32.97,1
0.9063634300231933,-0.08728342873709542,-0.1499577133996146,0.08206760951450894,-0.00230712890625,12.599421909877233,34.31369400024414,4.076799665178571,47.75,-16.375,39.125,125.838125,5.705669,32.97,1
0.9089028569630214,-0.10614628519330706,-0.14018285581043788,-0.010919102260044642,-0.003254830496651786,12.610166277204241,34.31290054321289,4.915745326450893,49.0,-12.75,36.75,137.985625,5.732534,32.97,1
0.9094948530197143,-0.08677714381899153,-0.12497485705784389,-0.0649090576171875,-0.0028255789620535714,12.600147792271205,34.31069564819336,4.773969377790179,48.375,-16.875,37.125,-47.244375000000005,5.673688,32.97,1
0.9161188527515957,-0.023382856505257742,-0.0919302875655038,0.03224461146763393,-0.002465645926339286,12.595116751534599,34.31224822998047,2.8569161551339284,44.875,-20.375,38.0,-32.655625,5.6545,32.97,1
0.9159840004784721,-0.02047314167022705,-0.09455657005310059,0.03595354352678572,-0.0035007149832589285,12.604657854352679,34.3133430480957,-0.18919154575892858,44.75,-20.875,37.625,-20.8,5.651941,32.99,1
0.8842354263578143,-0.07995999949319021,-0.10250742673873901,-0.0649639892578125,-0.002657906668526786,12.594641549246651,34.3109016418457,-2.265781947544643,47.625,-20.75,35.0,7.7787500000000005,5.646824,32.99,1
0.916766859463283,-0.1080480034010751,-0.15615657261439733,0.005870361328125,-0.0033272879464285713,12.596040998186384,34.31185531616211,-2.7696620396205356,50.75,-19.5,32.125,27.984375,5.637869,32.99,1
0.9231051424571446,-0.07251999957220895,-0.13933828660420008,0.041369541713169644,-0.0024996512276785716,12.602994646344866,34.3105354309082,-2.0817783900669644,52.0,-17.75,30.875,-7.862499999999999,5.645545,32.99,1
0.9073394298553467,-0.0569348566872733,-0.13967542920793805,-0.03863473074776786,-0.0032027762276785714,12.593479701450892,34.313636779785156,-1.5527518136160714,52.0,-17.0,31.0,-16.661875000000002,5.660896,32.99,1
0.9100708552769252,-0.04955200161252703,-0.10260114192962647,-0.0186126708984375,-0.002648751395089286,12.593909127371651,34.31234359741211,-1.8274623325892858,51.5,-17.125,31.375,8.662500000000001,5.645545,32.99,1
0.9095222847802299,-0.08197828667504446,-0.10774971519197736,0.025885096958705358,-0.003127964564732143,12.596551077706474,34.31154251098633,-1.8524954659598214,52.25,-17.375,31.0,-2.3756250000000003,5.644266,32.99,1
0.9198365681512015,-0.08503314461026873,-0.0986834294455392,-0.071121826171875,-0.0038517543247767855,12.591705322265625,34.310089111328125,-0.9188232421875,52.625,-17.25,29.875,-8.530000000000001,5.645545,32.99,1
0.9101428617749895,-0.09348914350782121,-0.1076685745375497,0.04591448102678571,-0.003147059849330357,12.589865548270089,34.307289123535156,1.1128016880580358,52.25,-17.5,30.0,-16.755625000000002,5.646824,32.95,1
0.9093679993493217,-0.08639657327107021,-0.10552914381027222,0.048679112025669644,-0.0031454903738839285,12.598770141601562,34.310279846191406,3.5807059151785716,52.0,-17.875,30.25,12.889375,5.628914,32.95,1
0.9109451409748622,-0.07165599993297032,-0.11754514183316912,-0.05829868861607143,-0.0029275948660714285,12.58870370047433,34.31398391723633,5.11639404296875,52.0,-18.0,30.375,-3.033125,5.623797,32.95,1
0.9114274270193917,-0.06489600045340402,-0.12237828527178084,0.052788521902901786,-0.0037267194475446427,12.58111572265625,34.31102752685547,5.033926827566964,51.875,-17.875,30.75,-9.771875,5.61996,32.95,1
0.9072685691288539,-0.07458285706383841,-0.13008000067302158,0.036255929129464286,-0.0027484130859375,12.586214338030134,34.3127555847168,3.5313023158482144,52.125,-17.625,30.375,23.398125,5.613564,32.95,1
0.908406856400626,-0.07880114691598075,-0.140641142981393,-0.07799089704241072,-0.0031687709263392857,12.579095023018974,34.3127326965332,1.2961774553571428,52.125,-17.0,30.125,13.46625,5.607167,32.95,1
0.9086388628823416,-0.07996457372392927,-0.13941142967769077,0.0011862618582589286,-0.0028860037667410715,12.565863473074776,34.312381744384766,-0.9353463309151786,52.25,-17.0,30.0,-23.106875000000002,5.607167,32.95,1
0.9084354312079294,-0.07771543060030256,-0.1302251400266375,0.02472499302455357,-0.0028611537388392857,12.5706787109375,34.31505584716797,-2.247035435267857,52.0,-17.125,30.0,9.130625,5.596933,32.95,1
0.9100011389596122,-0.07443085840770176,-0.1376262879371643,0.053451102120535714,-0.00235107421875,12.571415492466517,34.3151741027832,-2.4865897042410716,52.0,-17.5,30.25,10.567499999999999,5.582861,32.99,1
0.9075542933600289,-0.07028457198824202,-0.14020457233701433,-0.07371015276227678,-0.0030128696986607144,12.56357901436942,34.3153076171875,-2.301661900111607,52.0,-17.625,30.75,-9.654375,5.575186,32.99,1
0.9081268562589373,-0.06880685772214618,-0.1394960015160697,-0.010762416294642857,-0.0026385498046875,12.555555071149554,34.31489944458008,-2.0624215262276784,52.0,-18.0,30.25,15.506250000000001,5.572628,32.99,1
0.9080502843856811,-0.07009028605052403,-0.14181485550744194,0.0842523193359375,-0.003093174525669643,12.554763793945312,34.316017150878906,-1.7086530412946428,52.0,-17.875,30.125,9.563125,5.576465,32.99,1
0.908154284613473,-0.07310285908835275,-0.1392537123816354,0.03589599609375,-0.0034177943638392856,12.561397007533483,34.3157958984375,-1.3358503069196428,52.0,-18.0,30.0,-8.374375,5.562394,32.97,1
0.9088902882167271,-0.07278971365519932,-0.1393748572894505,-0.08998561314174107,-0.002958199637276786,12.558580671037946,34.31620788574219,-1.0698765345982142,52.0,-17.75,30.0,-18.458125,5.559835,32.97,1
0.9104148619515555,-0.07221142905099051,-0.12851314510617937,-0.035859898158482145,-0.0032456752232142855,12.549525669642858,34.3176155090332,-0.8825247628348214,52.0,-17.875,30.0,16.473125,5.543205,32.97,1
0.9110868610654559,-0.07030057157788958,-0.1208502847807748,0.013493303571428571,-0.0031661551339285713,12.545702253069196,34.31826400756836,-0.17562430245535715,52.0,-18.0,30.125,14.221874999999999,5.544484,32.97,1
0.911561142376491,-0.0708548583303179,-0.11699885811124529,0.05063860212053571,-0.002733241489955357,12.559219360351562,34.31642150878906,1.1211809430803572,52.0,-18.0,30.125,-4.989375,5.539367,32.97,1
0.909168004308428,-0.07055199929646083,-0.12549485717500958,-0.025814208984375,-0.0028608921595982143,12.560459681919642,34.32009506225586,2.6332833426339284,52.0,-18.0,30.375,-25.20125,5.540646,32.97,1
0.9084228583744594,-0.06972685813903809,-0.12265714134488787,-0.045133143833705355,-0.0030625697544642855,12.546484810965401,34.31432342529297,3.8234165736607144,52.0,-18.125,30.375,4.20875,5.53425,32.97,1
0.9110285758972168,-0.06956113985606602,-0.11713714361190795,0.09587009974888393,-0.0029275948660714285,12.543491908482142,34.31697463989258,4.485552106584821,52.0,-18.0,30.5,6.373749999999999,5.526575,32.97,1
0.9110319975444249,-0.06852343082427978,-0.11045142991202218,0.032369384765625,-0.003705531529017857,12.550676618303571,34.318790435791016,4.614100864955357,52.0,-18.0,30.375,-1.6325,5.51762,32.97,1
0.9111188575199672,-0.06993028334208898,-0.11400800023760115,-0.0716949462890625,-0.003089512416294643,12.546720232282366,34.317626953125,3.605006626674107,52.0,-18.0,30.25,-16.805625,5.526575,32.97,1
0.9117131423950195,-0.071094856602805,-0.11394057239804949,-0.008817574637276785,-0.003054722377232143,12.537259783063616,34.31794357299805,1.8193010602678572,52.0,-18.0,30.25,-0.7506249999999999,5.493314,32.97,1
0.9102537114279611,-0.07127885818481446,-0.11674057006835938,0.031150687081473213,-0.003324672154017857,12.545028686523438,34.31650924682617,0.12591552734375,52.0,-18.0,30.0,15.059375,5.503548,32.97,1
0.9103451422282628,-0.07348114694867815,-0.12448571409497942,0.03697187151227679,-0.002893589564732143,12.545933314732142,34.319332122802734,-1.2170933314732142,52.0,-18.0,30.0,4.58625,5.508665,32.95,1
0.9094377163478307,-0.07248685802732195,-0.13006057126181467,-0.071788330078125,-0.0032663399832589288,12.536019461495536,34.320640563964844,-2.45111083984375,52.0,-18.0,30.125,-12.980625000000002,5.503548,32.95,1
0.9100205714362009,-0.07311199835368565,-0.12836342913763862,0.015622035435267858,-0.0026906040736607143,12.529852730887276,34.32086944580078,-3.4455740792410716,52.0,-18.0,30.0,10.465625,5.507386,32.95,1
0.9102342844009399,-0.07317485434668405,-0.12525599922452654,0.01646484375,-0.0033382742745535713,12.538502284458705,34.323974609375,-3.573399135044643,52.125,-17.875,30.0,11.182500000000001,5.497152,32.95,1
0.9089851413454328,-0.0736800013269697,-0.12588800055640084,0.0028807721819196427,-0.0031088692801339284,12.53898184640067,34.318363189697266,-3.1708199637276784,52.0,-18.0,30.0,-5.485625,5.49971,32.95,1
0.9091142838341849,-0.07440685783113753,-0.12997142996106828,-0.06037562779017857,-0.0033029610770089284,12.525706699916295,34.31612014770508,-2.8104248046875,52.0,-17.875,30.0,-18.091875,5.497152,32.95,1
0.9099645709991455,-0.07353828770773752,-0.12791657175336565,0.042292393275669644,-0.002200927734375,12.519289289202009,34.318016052246094,-2.462376185825893,52.0,-17.75,30.0,13.3875,5.49971,32.95,1
0.9104308591570173,-0.07247657094682966,-0.12403656993593488,0.02245762416294643,-0.005089285714285715,12.530731201171875,34.320701599121094,-1.91265869140625,52.0,-17.875,30.0,8.340625,5.486917,32.95,1
0.9103988586153303,-0.07079542670931135,-0.12260228599820819,-0.03348502022879464,-0.0030264718191964288,12.526709420340401,34.32069396972656,-1.2873011997767858,52.0,-18.0,30.0,-11.17,5.497152,32.95,1
0.91066285269601,-0.07115657159260341,-0.1171245721408299,-0.04631914411272321,-0.003280726841517857,12.515550885881696,34.321895599365234,-0.8083147321428571,52.0,-17.875,30.0,-6.64125,5.490756,32.95,1
0.912674286706107,-0.0699382870537894,-0.1124914288520813,0.06541233607700893,-0.0034988839285714285,12.514190673828125,34.318119049072266,0.12241908482142858,52.0,-18.0,30.0,13.73375,5.488197,32.95,1
0.9090331452233451,-0.06812228441238403,-0.12119314227785383,0.03609767368861607,-0.0021216692243303573,12.521351405552455,34.31998825073242,1.5569022042410714,52.0,-18.0,30.0,5.2275,5.490756,32.95,1
0.9096102864401681,-0.07129257031849452,-0.12287428515298025,-0.07056675502232143,-0.002851998465401786,12.513421194893974,34.32086944580078,2.8397391183035716,52.0,-18.0,30.125,-15.82,5.485639,32.95,1
0.9103017153058733,-0.07283999953951155,-0.11979657207216535,0.006254359654017857,-0.002765677315848214,12.500697544642858,34.31892395019531,3.289829799107143,52.0,-18.0,30.0,-2.705,5.495872,32.95,1
0.9114034291676113,-0.07265028681073869,-0.11590057100568499,0.049211948939732145,-0.0034918212890625,12.509850638253349,34.32366180419922,2.91192626953125,52.0,-18.0,30.0,8.476875,5.481801,32.95,1
0.9097211401803152,-0.0720594300542559,-0.11834628513881139,-0.007196568080357143,-0.003049752371651786,12.505719866071429,34.32102584838867,1.9675380161830358,52.0,-18.0,30.0,0.0731250000000001,5.485639,32.95,1
0.9110502856118339,-0.07279314381735666,-0.11903657061713083,0.011800362723214285,-0.0031808035714285714,12.492773873465401,34.31880187988281,0.6356724330357143,52.0,-18.0,30.0,-13.989374999999999,5.484359,32.95,1
0.9109885726656233,-0.07288342714309692,-0.11612799985068185,-0.010481218610491071,-0.0033772495814732143,12.50014168875558,34.322628021240234,-0.6408255440848214,52.0,-18.0,30.0,10.0075,5.480521,32.95,1
0.9105268580572946,-0.07288571459906441,-0.12215999637331282,0.023107125418526785,-0.0027601841517857144,12.496488298688616,34.32176971435547,-1.4797276088169642,52.0,-17.875,30.0,7.489375,5.471567,32.95,1
0.9099977173124041,-0.07257828508104597,-0.12482285669871739,-0.047514299665178575,-0.003517979213169643,12.484540666852679,34.32090759277344,-1.8779645647321428,52.125,-17.875,30.0,-9.035625,5.477963,32.95,1
0.9109645734514509,-0.07225028651101248,-0.11984114408493042,0.04664742606026786,-0.0029519217354910714,12.485541207449776,34.32046127319336,-1.9945853097098214,52.0,-18.0,30.0,-1.77,5.474125,32.95,1
0.9101531423841204,-0.07221257073538644,-0.12275314296994891,0.033859601702008926,-0.0036288888113839286,12.491941179547991,34.3206901550293,-1.8375767299107142,52.0,-18.0,30.0,9.480625,5.474125,32.95,1
0.9100034264155796,-0.07177257333483014,-0.12290171350751604,-0.07634242466517857,-0.003683035714285714,12.484935215541295,34.321712493896484,-1.5333600725446428,52.0,-17.875,30.0,-4.165,5.471567,32.95,1
0.9102777147293091,-0.0722777121407645,-0.12134171111243111,0.021671840122767856,-0.0033976527622767857,12.474530901227679,34.322357177734375,-1.26129150390625,52.0,-18.0,30.0,-12.274375,5.463891,32.95,1
0.9102525690623692,-0.07225714411054339,-0.11852114404950823,-0.0005351911272321429,-0.002769862583705357,12.483169555664062,34.322113037109375,-0.9394880022321429,52.0,-18.0,30.0,11.7125,5.467729,32.95,1
0.9111234290259225,-0.07272343124662127,-0.11927885702678136,0.018807809012276785,-0.0030743408203125,12.482753208705358,34.32052230834961,-0.6053466796875,52.125,-18.0,30.0,2.180625,5.458774,32.95,1
0.9120091438293457,-0.07270856993538993,-0.11718971320561,-0.05477024623325893,-0.0036968994140625,12.473229544503349,34.32040786743164,-0.3177490234375,52.125,-17.875,30.125,-15.983125000000001,5.463891,32.95,1
0.9120342826843262,-0.0706594273022243,-0.11015885966164725,0.06957249232700893,-0.0023353794642857143,12.46612548828125,34.32075881958008,0.09906005859375,52.0,-17.875,30.0,9.973125,5.462612,32.95,1
0.9118377126966204,-0.07057142666407994,-0.11281257016318184,-0.014997122628348214,-0.0037534005301339286,12.481737409319196,34.319602966308594,1.0169764927455358,52.0,-18.0,30.0,7.1656249999999995,5.462612,32.97,1
0.9083897120612008,-0.06986628464290073,-0.1220571425982884,-0.019078805106026785,-0.002991158621651786,12.480926513671875,34.32047653198242,2.1905691964285716,52.0,-18.0,30.0,-7.436875000000001,5.452378,32.97,1
0.9099440016065325,-0.07156228337969099,-0.12092000075748989,0.010580618722098215,-0.0034604317801339287,12.468252999441964,34.31979751586914,3.173740931919643,52.0,-18.0,30.125,-10.740625,5.458774,32.97,1
0.9108685677392142,-0.07136571441377912,-0.11705485616411482,0.010514177594866071,-0.003692190987723214,12.474729265485491,34.32097244262695,3.545802525111607,52.0,-18.0,30.0,10.683125,5.456215,32.97,1
0.9106960003716605,-0.07290399960109166,-0.11718514408384051,0.034627859933035715,-0.0026560756138392858,12.475596836635045,34.32059860229492,2.9225899832589284,52.0,-18.0,30.0,5.1075,5.454937,32.95,1
0.9106285769598824,-0.07399771622249059,-0.12191428456987653,-0.0507403564453125,-0.0028888811383928573,12.463476998465401,34.32353973388672,1.5801478794642858,52.0,-17.875,30.0,-11.997499999999999,5.452378,32.95,1
0.9104148619515555,-0.0733108571597508,-0.12088799953460694,0.06913722446986607,-0.0033958217075892856,12.458498273577009,34.32185745239258,-0.03602818080357143,52.0,-18.0,30.0,-0.98,5.444702,32.95,1
0.9107931457247053,-0.07328914608274187,-0.11590400082724435,0.012849295479910714,-0.003175833565848214,12.466363089425224,34.31942367553711,-1.2531999860491072,52.0,-17.875,30.0,10.79875,5.445982,32.95,1
0.9105542857306345,-0.07285371473857334,-0.12019085850034442,-0.06821646554129464,-0.002551182338169643,12.460074288504464,34.32085418701172,-1.9532296316964286,52.0,-17.75,30.0,1.388125,5.440865,32.95,1
0.9110685750416347,-0.07276342936924525,-0.1187062839099339,0.004242292131696429,-0.0029461669921875,12.448468889508929,34.32184600830078,-2.256870814732143,52.0,-18.0,30.0,-12.009374999999999,5.44982,32.95,1
0.9106251416887556,-0.07260228633880615,-0.11658742904663086,0.011641322544642858,-0.0028569684709821427,12.455396379743304,34.320674896240234,-2.118068150111607,52.0,-17.875,30.0,12.557500000000001,5.442144,32.95,1
0.9110788556507655,-0.07405028479439872,-0.11649371419634137,0.0358172607421875,-0.0032511683872767858,12.455540248325892,34.323036193847656,-1.7666538783482142,52.25,-17.75,30.0,4.243124999999999,5.442144,32.95,1
0.9106182888575962,-0.07418628692626954,-0.11778971467699323,-0.06678902762276785,-0.002610560825892857,12.444481985909599,34.321807861328125,-1.4254586356026786,52.0,-17.5,30.0,-16.42875,5.429351,32.95,1
0.9111874260221209,-0.07274742671421595,-0.11551085574286325,0.008456333705357142,-0.0029814801897321427,12.437040056501116,34.3204231262207,-1.1510445731026786,52.0,-17.75,30.0,5.401875,5.430631,32.95,1
0.911754287311009,-0.07271657160350255,-0.10830857276916504,0.015014386858258929,-0.0039281354631696425,12.446075439453125,34.31877899169922,-0.7168055943080357,52.125,-17.875,30.0,10.6375,5.43191,32.95,1
0.9125851440429688,-0.07267657245908464,-0.10760799986975533,0.028018014090401784,-0.003437935965401786,12.447963169642858,34.32121658325195,-0.10727364676339286,52.0,-17.875,30.0,-4.43375,5.429351,32.95,1
0.9115417119434902,-0.0714331408909389,-0.11081143072673252,-0.06571027483258929,-0.0030850655691964284,12.439030238560267,34.32241439819336,0.7093157087053571,52.0,-17.875,30.0,-17.828125,5.430631,32.95,1
0.9110251426696777,-0.0706091400555202,-0.11327543122427804,0.014293474469866072,-0.0031177629743303573,12.43308585030692,34.32040023803711,1.7857753208705358,52.0,-18.0,30.0,12.273125,5.424234,32.95,1
0.9102697154453823,-0.07109257255281722,-0.10556228535515921,0.03254150390625,-0.0034834507533482145,12.443817138671875,34.32038116455078,3.064113071986607,52.0,-18.0,30.0,9.675625,5.428072,32.95,1
0.9117085702078683,-0.07169485603060041,-0.10777828523090907,0.023471243722098214,-0.0032391357421875,12.447995867047991,34.32012939453125,4.282322474888393,52.0,-17.875,30.0,-6.50875,5.421676,32.95,1
0.9124331419808523,-0.0729097124508449,-0.10545142684664045,-0.04963282993861607,-0.0031198556082589284,12.434882027762276,34.31687927246094,4.400094168526786,52.0,-18.0,30.0,-17.93,5.424234,32.99,1
0.9127382850646972,-0.07281943014689854,-0.09553714411599296,0.05736589704241071,-0.002862461635044643,12.432776314871651,34.32014083862305,3.15032958984375,52.0,-17.75,30.0,12.155625,5.422955,32.99,1
0.912953143801008,-0.07302400112152099,-0.09756685529436383,0.032855660574776784,-0.0035360281808035714,12.433888026646205,34.32290267944336,1.5394635881696428,52.0,-18.0,30.0,9.865625,5.422955,32.99,1
0.912721141406468,-0.07399200064795358,-0.10498057126998901,-0.07056937081473215,-0.0034115164620535715,12.424338204520089,34.322628021240234,-0.012285505022321428,52.0,-17.875,30.0,-4.467499999999999,5.406325,32.99,1
0.9124628550665719,-0.07416228839329311,-0.10710285663604736,-0.0019987269810267856,-0.0032618931361607143,12.415110996791295,34.321083068847656,-1.4484601702008928,52.25,-17.875,30.0,-8.345,5.416559,32.95,1
0.9125702817099435,-0.07484571593148368,-0.10602971519742693,0.04209359305245536,-0.0035708182198660714,12.424902779715401,34.31512451171875,-2.6071690150669644,52.0,-17.875,30.0,13.14,5.412721,32.95,1
0.9103154277801514,-0.07430857215608869,-0.10993485723223005,-0.008151070731026786,-0.003535243443080357,12.422840663364955,34.32135772705078,-3.207728794642857,52.375,-18.0,30.0,4.420624999999999,5.412721,32.95,1
0.9112034293583461,-0.0744137133870806,-0.11057714462280273,-0.014848284040178572,-0.003909563337053571,12.412033081054688,34.31983947753906,-3.396998814174107,52.25,-17.75,30.0,-14.445625,5.408883,32.95,1
0.9122137185505458,-0.07329142808914185,-0.10662628650665283,0.01703273228236607,-0.0033636474609375,12.418940952845983,34.322872161865234,-3.2157156808035716,52.125,-18.0,30.0,8.534375,5.408883,32.95,1
0.9123177146911621,-0.07412800107683454,-0.10718628713062832,0.0374359130859375,-0.0032155936104910714,12.422393798828125,34.31719207763672,-2.7063773018973216,52.0,-17.5,30.0,6.8843749999999995,5.407604,32.95,1
0.9111040006365095,-0.07374514511653356,-0.11095999819891793,-0.06970851353236607,-0.0034363664899553573,12.4100341796875,34.319480895996094,-2.1180245535714284,52.0,-17.625,30.0,-10.978750000000002,5.407604,32.95,1
0.9129611424037388,-0.07238971505846296,-0.10376571484974452,0.006842128208705357,-0.002845458984375,12.402866908482142,34.31828308105469,-1.5979527064732142,52.25,-18.0,30.0,-4.054375,5.407604,32.95,1
0.9141542857033865,-0.07253485645566668,-0.09966628653662546,0.018629935128348214,-0.0036275809151785714,12.417020525251116,34.32122039794922,-0.9614955357142857,52.0,-18.0,30.0,9.805,5.399929,32.95,1
0.9111337116786412,-0.07140343121119908,-0.1048285732950483,-0.019071742466517858,-0.0028731863839285715,12.412564958844866,34.31892395019531,0.10823277064732142,52.125,-18.0,30.0,-1.5037500000000001,5.410162,32.95,1
0.9112982858930315,-0.0709611415863037,-0.10814400298254831,0.002145211356026786,-0.003631504603794643,12.400046212332589,34.31694030761719,1.3975830078125,52.0,-18.0,30.0,-16.170625,5.394812,32.95,1
0.9107074281147548,-0.0715737111227853,-0.10330171414784023,0.0037105015345982144,-0.003160923549107143,12.409877232142858,34.3173942565918,2.812953404017857,52.0,-18.0,30.0,10.533750000000001,5.403766,32.95,1
0.9114765671321324,-0.07328799997057234,-0.10849142892020089,0.03900015694754464,-0.0038444301060267857,12.41414315359933,34.31639099121094,4.088082449776786,52.0,-17.875,30.0,5.809375000000001,5.393532,32.95,1
0.9118617153167725,-0.0736788603237697,-0.10872228724615915,-0.022808925083705356,-0.003347429547991071,12.402566092354911,34.317054748535156,4.240059988839286,52.125,-17.75,30.0,-14.13875,5.403766,32.95,1
0.9119588559014457,-0.07483885662896292,-0.10680228573935373,0.024834856305803572,-0.003468540736607143,12.406058175223214,34.317657470703125,3.1263602120535716,52.0,-17.875,30.0,-2.04375,5.399929,32.95,1
0.9115760033471244,-0.07578857149396624,-0.11095999888011387,0.030041591099330356,-0.0028802490234375,12.410417829241071,34.31570816040039,1.6389857700892858,52.125,-17.5,30.0,13.215625,5.392253,32.95,1
0.9105931404658726,-0.07677142994744438,-0.12199657099587577,-0.054407174246651785,-0.004262433733258929,12.399645124162946,34.316673278808594,0.06501116071428571,52.5,-17.375,30.0,2.9787500000000002,5.393532,32.99,1
0.9104079968588693,-0.07685942786080496,-0.11677828277860369,0.04670523507254464,-0.003520595005580357,12.397179739815849,34.31685256958008,-1.5538853236607142,52.625,-17.0,30.0,-10.4825,5.394812,32.99,1
0.9101051439557757,-0.07514971324375698,-0.12080685683659145,0.02956630161830357,-0.003624965122767857,12.402341570172991,34.31748962402344,-2.620884486607143,52.625,-17.125,30.0,14.050625,5.393532,32.99,1
0.9104879971912929,-0.07571199996130808,-0.12167314256940569,-0.06796456473214285,-0.0029362269810267855,12.395113263811384,34.31597137451172,-2.8850533621651784,52.75,-17.0,30.0,4.995,5.385857,32.99,1
0.9108228594916208,-0.0746045708656311,-0.12044228213174002,0.006296735491071429,-0.004166434151785714,12.38679940359933,34.31208801269531,-2.7660696847098216,53.0,-17.0,30.0,-12.660625,5.388415,32.97,1
0.9116902896336146,-0.07392571585518973,-0.11734743050166539,0.021416015625,-0.003734043666294643,12.399453299386161,34.31581497192383,-2.4053780691964284,53.0,-17.0,29.625,11.35125,5.374343,32.97,1
0.9102274281638009,-0.07454857076917376,-0.11764914342335292,-0.001981724330357143,-0.0035804966517857142,12.398993355887276,34.318180084228516,-1.9211948939732142,53.0,-17.0,30.0,3.829375,5.392253,32.97,1
0.9119851425715855,-0.07351314306259155,-0.11081256968634469,-0.05591884068080357,-0.003153076171875,12.387052263532366,34.31401824951172,-1.3751307896205358,53.0,-16.75,29.875,-18.854375,5.375623,32.97,1
0.9126777110780988,-0.07305257150105067,-0.10405599900654385,0.12530613490513393,-0.0029880196707589286,12.380765642438616,34.31899642944336,-0.22618756975446427,53.0,-17.0,29.75,5.83,5.37946,32.99,1
0.9130514301572528,-0.07288800137383597,-0.10013143232890538,-0.07406040736607143,-0.002983572823660714,12.395553588867188,34.314353942871094,1.5329153878348214,52.875,-17.0,30.0,7.0843750000000005,5.367947,32.99,1
0.910304000037057,-0.0724720025062561,-0.10655885900769915,-0.03250383649553571,-0.0032875279017857144,12.388894217354911,34.3126335144043,3.1435459681919644,53.0,-17.0,29.875,-10.969999999999999,5.350038,32.99,1
0.9119028575079782,-0.07329828568867275,-0.10417485509599958,0.015163748604910715,-0.0031418282645089284,12.373805454799108,34.31276321411133,4.019505092075893,52.875,-17.25,29.75,-10.864374999999999,5.367947,32.99,1
0.9121074295043945,-0.07203314338411604,-0.09691085645130702,0.012708304268973214,-0.0030680629185267858,12.382880074637276,34.3135986328125,4.056143624441964,52.75,-17.25,29.5,8.501875,5.365389,32.97,1
0.9125268588747297,-0.07399885586329868,-0.10180914299828665,0.019395054408482142,-0.003615809849330357,12.380586896623884,34.318111419677734,3.135402134486607,52.75,-17.375,29.5,2.5031250000000003,5.375623,32.97,1
0.9123051452636719,-0.07395657232829503,-0.11064342907496862,-0.04843479701450893,-0.0029561070033482144,12.366156441824776,34.314842224121094,1.5684378487723214,52.75,-17.0,29.375,-15.239375,5.369226,32.97,1
0.9116674280166626,-0.07401714665549142,-0.10878171512058803,0.052473842075892854,-0.003130057198660714,12.365306309291295,34.314998626708984,-0.09837123325892858,52.875,-17.0,29.625,4.380624999999999,5.370506,32.97,1
0.9109794289725167,-0.07463543040411813,-0.114469712802342,0.03517665318080357,-0.003370448521205357,12.368207659040179,34.317481994628906,-1.3580583844866072,53.0,-17.0,29.625,15.5125,5.355155,32.99,1
0.9111268581662859,-0.0751680030141558,-0.11686742748532976,-0.07354483468191965,-0.0030194091796875,12.362237112862724,34.31564712524414,-2.202845982142857,53.0,-17.0,29.5,0.41374999999999984,5.366668,32.99,1
0.9109977177211217,-0.07441600220543998,-0.1155428569657462,0.0110687255859375,-0.0027711704799107144,12.352316720145089,34.31489562988281,-2.6754324776785716,52.875,-17.0,29.625,-7.2631250000000005,5.357713,32.99,1
0.9113645737511771,-0.07378971542630877,-0.11407199859619141,0.006447666713169643,-0.0032025146484375,12.361685616629464,34.31614303588867,-2.683506556919643,52.875,-17.0,29.875,13.963125,5.369226,32.99,1
0.9102834245136806,-0.07449599845068795,-0.11467885937009539,0.012809535435267857,-0.0030521065848214284,12.36250741141183,34.313419342041016,-2.2855398995535716,53.0,-17.0,29.875,3.1275000000000004,5.360272,32.99,1
0.9109394271033151,-0.07451543263026646,-0.1164217141696385,-0.0473565673828125,-0.003293021065848214,12.352767944335938,34.3112907409668,-2.0198189871651784,52.875,-17.0,29.875,-18.461875,5.369226,32.99,1
0.9116925689152309,-0.07357257502419608,-0.11072914225714547,0.06751203264508929,-0.003013131277901786,12.352922712053571,34.313846588134766,-1.7612479073660714,53.0,-17.0,29.5,7.63875,5.36411,32.99,1
0.9118811443873814,-0.07222742864063808,-0.10625371251787458,0.004684622628348214,-0.003487636021205357,12.362160818917411,34.313819885253906,-1.0784737723214286,53.0,-17.0,29.625,8.872499999999999,5.365389,32.99,1
0.9122217164720807,-0.07152114459446499,-0.10943428448268346,-0.06295636858258928,-0.003419886997767857,12.358690534319196,34.31661605834961,-0.04630824497767857,52.875,-17.0,29.5,-8.68375,5.369226,32.97,1
0.9109234278542655,-0.07120457138334002,-0.11067771366664342,0.0050152587890625,-0.0033824811662946427,12.351906912667411,34.3163948059082,1.1728777204241072,53.0,-17.0,29.5,-9.182500000000001,5.36283,32.97,1
0.9102548551559448,-0.071910856791905,-0.10290857315063477,0.019802333286830356,-0.003176356724330357,12.361282348632812,34.318965911865234,2.5740966796875,52.625,-17.375,29.75,12.09125,5.360272,32.97,1
0.9110959986277989,-0.07274857180459159,-0.10414971317563738,0.02173985072544643,-0.003386928013392857,12.362383161272321,34.314998626708984,3.544956752232143,52.75,-17.125,29.75,0.6799999999999998,5.352596,32.97,1
0.912682283946446,-0.07385828699384417,-0.10550285577774048,0.004798409598214285,-0.0031912667410714285,12.348336356026786,34.31602096557617,3.4800240652901784,52.875,-17.125,29.75,-19.548125,5.357713,32.99,1
0.911514288357326,-0.0720925715991429,-0.10211542912891933,-0.010924072265625,-0.003090297154017857,12.356874738420759,34.315818786621094,2.434108189174107,52.875,-17.0,29.375,6.135000000000001,5.353876,32.99,1
0.9122251415252686,-0.07238400084631784,-0.11130399976457868,0.022183489118303572,-0.0030332728794642857,12.35693359375,34.32038116455078,0.9984566824776786,52.875,-17.0,29.625,11.75375,5.356434,32.99,1
0.9107771451132638,-0.07338171379906791,-0.11479657309395927,-0.012339215959821428,-0.003259800502232143,12.344861711774554,34.31637954711914,-0.40505545479910715,52.75,-17.0,30.0,-3.005625,5.348759,32.99,1
0.9107588604518345,-0.07248457363673619,-0.11154400144304548,-0.0051593889508928575,-0.0036001150948660712,12.351924351283483,34.31926727294922,-1.4593680245535714,52.75,-17.0,29.75,-6.60875,5.351317,33.0,1
0.9118571431296212,-0.07481028727122715,-0.11369028602327619,0.031966552734375,-0.0032365199497767856,12.351723807198661,34.320518493652344,-2.008701869419643,52.875,-17.0,29.875,11.523125,5.343641,33.0,1
0.9101885713849749,-0.07345257350376674,-0.11677714347839356,-0.039549211774553575,-0.0032561383928571427,12.341138567243304,34.31747055053711,-2.2885044642857144,52.875,-17.0,29.625,-0.03499999999999992,5.348759,33.0,1
0.9114800017220633,-0.07277143001556396,-0.1123508586202349,0.019578159877232142,-0.003306361607142857,12.3447265625,34.31783676147461,-2.2793055943080356,53.0,-17.0,29.625,-12.39,5.347479,33.0,1
0.9113108594076974,-0.07402057204927717,-0.11292456899370466,0.031308157784598216,-0.0034170096261160712,12.349482945033483,34.317745208740234,-1.9310825892857142,52.875,-17.0,29.875,11.769375,5.3462,33.0,1
0.9105599975585937,-0.07316457203456334,-0.11771314144134522,-0.05233389718191964,-0.0030617850167410712,12.342947823660714,34.3190803527832,-1.6319580078125,53.0,-17.0,29.75,0.18937500000000007,5.333407,33.0,1
0.9121257080350603,-0.07287542854036604,-0.11032000030790057,0.03393075125558036,-0.0032325962611607145,12.347137451171875,34.318607330322266,-1.3617204938616072,53.0,-17.0,29.625,-18.0475,5.335966,33.0,1
0.9111748565946306,-0.07189371381487165,-0.10891314131872995,0.017852783203125,-0.0033432442801339286,12.35640389578683,34.31816482543945,-0.7623814174107143,53.0,-17.0,29.5,11.489374999999999,5.341083,33.0,1
0.9123805720465524,-0.0713542856488909,-0.11040685892105102,-0.06278398786272321,-0.0030790492466517857,12.350121634347099,34.32040786743164,0.20386614118303573,52.875,-17.125,29.625,4.564375,5.338524,32.99,1
0.9126582895006452,-0.06989713907241821,-0.10665714195796422,0.033240966796875,-0.0034342738560267858,12.34983389718192,34.318660736083984,1.2779802594866072,53.0,-17.0,30.0,-17.34625,5.335966,32.99,1
0.9099200078419276,-0.06741943052836827,-0.11689828463963099,0.020484793526785713,-0.003111485072544643,12.360458374023438,34.32076644897461,2.4756905691964284,52.375,-17.25,29.75,12.157499999999999,5.337245,32.99,1
0.9096880006790161,-0.06901828493390764,-0.11685142823628017,-0.033695853097098216,-0.0033544921875,12.354296003069196,34.32136154174805,3.5302559988839284,52.625,-17.375,29.875,4.4875,5.334687,32.99,1
0.9110777146475656,-0.06805371386664254,-0.1141291424206325,0.010812901088169643,-0.0032260567801339285,12.354040963309151,34.322357177734375,3.9323556082589284,52.75,-17.125,29.875,-18.86,5.333407,32.99,1
0.912084572655814,-0.07155885560171944,-0.10799200092043196,0.025791451590401786,-0.00361083984375,12.354762486049108,34.32294464111328,3.4087088448660716,52.75,-17.125,30.0,7.77375,5.339804,32.99,1
0.9121794291904994,-0.07335657153810773,-0.11097485848835537,-0.0009270368303571429,-0.0031585693359375,12.340096609933036,34.322998046875,2.08447265625,52.875,-17.125,29.5,6.969375,5.334687,32.99,1
0.9164320026125227,-0.07791657141276769,-0.11187313897269113,-0.010929827008928571,-0.002928379603794643,12.346357073102679,34.32206726074219,0.6378522600446429,52.875,-17.5,29.75,-10.37125,5.320615,32.99,1
0.9020971427645003,-0.07764342784881592,-0.10730057205472673,0.020186854771205357,-0.0032977294921875,12.347562517438616,34.322059631347656,-0.57098388671875,52.375,-17.625,29.875,11.718125,5.323174,33.0,1
0.9169257116317749,-0.07164914233343941,-0.09977142810821533,-0.015845424107142857,-0.0032053920200892858,12.334485735212054,34.323028564453125,-1.7341047014508928,52.25,-17.75,30.125,7.593125000000001,5.324453,33.0,1
0.9101977143968855,-0.07437600033623831,-0.11972228629248483,-0.008150285993303572,-0.003212454659598214,12.335721697126116,34.324485778808594,-2.68438720703125,52.125,-17.0,30.375,-9.74125,5.323174,33.0,1
0.907417140688215,-0.05741028785705567,-0.14159428664616175,0.027359619140625,-0.0033552769252232144,12.335366385323661,34.327877044677734,-2.808349609375,52.375,-16.875,30.0,9.46,5.323174,33.0,1
0.907085713659014,-0.060993142468588696,-0.15416114398411343,-0.05596278599330357,-0.003206699916294643,12.32080078125,34.32746887207031,-2.5158778599330356,52.375,-17.0,30.375,-1.653125,5.318057,33.0,1
0.9085474259512765,-0.0546331422669547,-0.155097142968859,0.041738368443080355,-0.0030819266183035716,12.316796439034599,34.32815933227539,-2.3456944056919644,52.125,-17.0,30.125,-10.998125,5.325732,33.0,1
0.9049759980610439,-0.06655314309256417,-0.1480160001346043,0.038743024553571426,-0.0033578927176339288,12.324868338448661,34.32518768310547,-1.9549124581473214,52.75,-16.25,30.125,9.34125,5.314219,33.0,1
0.9075280012403215,-0.07378057411738805,-0.14295542785099574,-0.06383030482700892,-0.003380650111607143,12.320877075195312,34.32712173461914,-0.6597726004464286,53.0,-16.0,29.75,-12.346875,5.314219,33.0,1
0.9085520008632115,-0.0734342861175537,-0.13538514409746444,0.062198311941964284,-0.0029542759486607144,12.318849836077009,34.32577133178711,1.1185041155133928,53.0,-16.125,29.25,-15.01625,5.310381,33.0,1
0.9082319968087332,-0.07262628384998866,-0.1240525736127581,0.004405517578125,-0.003475341796875,12.333940778459821,34.328216552734375,2.799072265625,53.0,-16.5,29.5,21.219375,5.321894,33.0,1
0.9108594281332834,-0.07394857236317226,-0.11838628734861101,-0.05405718122209822,-0.0032613699776785714,12.332460675920759,34.32960891723633,3.6982509068080356,53.0,-17.0,29.625,20.38625,5.324453,33.0,1
0.9120651442664011,-0.07057486023221697,-0.10867428473063878,0.06676679338727678,-0.0033858816964285714,12.32676260811942,34.32781982421875,3.69378662109375,52.875,-16.875,29.5,-18.645,5.332128,33.0,1
0.9124228579657419,-0.06554628474371774,-0.11326171466282436,-0.0077186802455357145,-0.0034729875837053573,12.332574026925224,34.33040237426758,2.80853271484375,52.75,-17.0,29.75,-0.36750000000000027,5.330849,33.03,1
0.9086685718808856,-0.06258857250213623,-0.1303199999673026,-0.05200064522879464,-0.003203037806919643,12.32421875,34.327110290527344,1.2627650669642858,52.75,-16.875,30.0,0.29,5.338524,33.03,1
0.9081622818538121,-0.06891999994005475,-0.1374468585423061,-0.005404488699776786,-0.0029341343470982145,12.313380650111608,34.327945709228516,-0.4956577845982143,53.0,-17.0,29.375,-14.319375,5.341083,33.03,1
0.9089154277529036,-0.0632879969051906,-0.13915314367839268,0.03809064592633928,-0.0036783272879464288,12.32181876046317,34.33039474487305,-1.7251325334821428,53.0,-16.375,29.375,8.665000000000001,5.339804,33.03,1
0.907691433770316,-0.06309714317321777,-0.14520799943378992,-0.016156180245535716,-0.003414132254464286,12.315458025251116,34.3316535949707,-2.3037545340401784,53.0,-16.375,29.0,9.645,5.338524,33.0,1
0.9067039973395211,-0.06458628416061402,-0.1349120000430516,-0.03720755440848214,-0.003312901088169643,12.30377197265625,34.33146286010742,-2.615574428013393,53.0,-16.875,29.25,-4.938750000000001,5.337245,33.0,1
0.9086937127794539,-0.06445485728127616,-0.11724114418029785,0.0526922607421875,-0.003632027762276786,12.304090227399554,34.32957458496094,-2.71063232421875,53.0,-17.0,29.125,16.490000000000002,5.334687,33.0,1
0.9187794310706002,-0.05864457334790911,-0.09051428488322667,0.04639944893973214,-0.0035208565848214284,12.311248779296875,34.328556060791016,-2.435023716517857,52.875,-17.125,29.25,8.566875,5.334687,33.0,1
0.9140034287316459,-0.06239543063299997,-0.10060457365853445,-0.07929173060825893,-0.0030353655133928572,12.307621547154017,34.32780075073242,-2.0915091378348216,52.75,-17.25,29.375,-18.7975,5.333407,33.05,1
0.9117200013569423,-0.060306287152426585,-0.09919656991958618,0.0006978934151785714,-0.0033416748046875,12.298477172851562,34.328025817871094,-1.6354282924107142,53.0,-17.25,29.375,-11.639999999999999,5.32957,33.05,1
0.9136388601575579,-0.0582365734236581,-0.09636457204818726,0.015463779994419643,-0.003187343052455357,12.308190482003349,34.326412200927734,-0.5428379603794643,52.5,-17.5,29.75,7.3175,5.327011,33.05,1
0.9112925699778965,-0.05874285595757621,-0.10123314414705549,0.024932163783482144,-0.0031740025111607144,12.31483895438058,34.328304290771484,0.9780709402901786,52.625,-17.875,29.5,2.331875,5.31294,33.05,1
0.909876572063991,-0.06482514347348894,-0.12171314137322561,-0.012487531389508928,-0.003254307338169643,12.304997035435267,34.32664489746094,2.33233642578125,52.75,-17.125,29.25,-17.303125,5.324453,33.03,1
0.9116057109832764,-0.06535314219338553,-0.11850400005068097,0.008729160853794642,-0.0032511683872767858,12.308831351143974,34.32712936401367,3.2910679408482144,53.0,-17.125,29.25,13.190625,5.310381,33.03,1
0.9077485745293753,-0.07334171465465,-0.12403543063572475,0.0295550537109375,-0.0032713099888392856,12.309018816266741,34.32936477661133,3.7357875279017856,53.0,-16.125,29.375,11.251249999999999,5.316777,33.03,1
0.9103199931553432,-0.0744662857055664,-0.12487314360482352,-0.033725411551339284,-0.0033309500558035715,12.295769827706474,34.32917785644531,3.3782523018973216,53.0,-16.75,29.125,-0.44499999999999995,5.301426,33.03,1
0.910738286972046,-0.07165828602654593,-0.12658514261245726,0.004393746512276786,-0.003636474609375,12.30049569266183,34.3303337097168,2.04583740234375,53.0,-16.625,29.25,-4.293749999999999,5.302705,33.05,1
0.9102297142573765,-0.07268571478979928,-0.12137143032891409,0.0177227783203125,-0.0031601388113839286,12.301851545061384,34.33149337768555,0.5059029715401786,53.0,-16.875,29.5,13.369375,5.297588,33.05,1
0.91085485798972,-0.07087428740092687,-0.11902971540178571,-0.04893415178571429,-0.0034347970145089286,12.289895193917411,34.33000183105469,-0.8131801060267857,53.0,-16.875,29.125,-0.8556249999999999,5.298868,33.05,1
0.9111302866254534,-0.0683382865360805,-0.12447314160210746,0.006068899972098214,-0.0034230259486607143,12.288739885602679,34.32770538330078,-1.7731672014508928,52.875,-17.0,29.75,-22.541249999999998,5.29503,33.05,1
0.9089154270717076,-0.06749142783028739,-0.12780114105769566,0.034924490792410716,-0.003094482421875,12.285764421735491,34.32815170288086,-2.159694126674107,52.875,-16.875,29.875,1.4762499999999998,5.300147,33.05,1
0.9091748530524117,-0.06498171465737479,-0.12912342820848738,-0.040767909458705356,-0.0035940987723214286,12.273086547851562,34.33186340332031,-2.2371826171875,53.0,-16.625,29.875,-1.9912500000000002,5.303985,33.05,1
0.9104537153244019,-0.06342857224600655,-0.12794628688267298,0.01985726492745536,-0.0031569998604910714,12.273531232561384,34.32842254638672,-2.1537911551339284,52.875,-16.75,29.75,-13.29,5.286075,33.05,1
0.9097371441977364,-0.06545142616544451,-0.1295668605395726,0.031190185546875,-0.0031146240234375,12.276687622070312,34.3303108215332,-1.8281773158482142,53.0,-16.75,29.625,12.570625,5.292471,33.05,1
0.9097862883976527,-0.0643920019694737,-0.12975657122475762,-0.050049264090401786,-0.0030128696986607144,12.266695295061384,34.32936477661133,-1.4377179827008928,53.0,-16.75,29.625,5.045625,5.287354,33.03,1
0.9105474274499076,-0.06065371581486293,-0.1271188565662929,0.012681100027901786,-0.003448922293526786,12.26833016531808,34.330997467041016,-0.9127371651785714,53.0,-17.0,29.75,-11.765625,5.288634,33.03,1
0.9086559983662197,-0.060846858365195135,-0.1285577164377485,0.01770943777901786,-0.003335396902901786,12.271968296595983,34.32929229736328,0.21287318638392858,53.0,-17.0,29.75,11.303125000000001,5.287354,33.03,1
0.9069977133614676,-0.059337141513824465,-0.13530742747443064,-0.004642769949776786,-0.003299560546875,12.262945992606026,34.327632904052734,1.6764962332589286,53.0,-17.0,29.75,1.824375,5.287354,33.03,1
0.9092662865774972,-0.058363428797040665,-0.12936114481517247,-0.0050916399274553575,-0.0031808035714285714,12.270191737583705,34.330196380615234,2.9661342075892856,52.875,-17.0,29.625,-19.641875,5.280958,33.05,1
0.9091908577510289,-0.05885828869683402,-0.13105828591755458,0.020397164481026787,-0.0032700020926339285,12.269171578543526,34.327144622802734,3.584987095424107,53.0,-17.0,29.75,6.2993749999999995,5.283517,33.05,1
0.9089314263207572,-0.05664800030844552,-0.13775543110711233,-0.0017606898716517856,-0.0036322893415178573,12.256044660295759,34.33053970336914,2.9096854073660716,52.875,-17.0,29.875,5.379375,5.250256,33.05,1
0.908800003187997,-0.056058285576956614,-0.13373257194246566,-0.012527291434151785,-0.0030058070591517856,12.264881678989955,34.32953643798828,1.4499162946428572,52.75,-17.0,29.875,-11.243749999999999,5.277121,33.05,1
0.908646856716701,-0.05745257343564715,-0.1377177139690944,0.002977294921875,-0.003397914341517857,12.257749285016741,34.330970764160156,0.009652273995535714,52.875,-17.0,29.875,14.30125,5.268166,33.05,1
0.9087817123958043,-0.05869943073817662,-0.1401577159336635,0.005999319893973214,-0.003227626255580357,12.241832188197545,34.331153869628906,-1.1904732840401786,53.0,-17.0,30.0,6.845000000000001,5.272004,33.05,1
0.909133712223598,-0.059146288122449604,-0.13400914362498692,-0.009160243443080357,-0.003043212890625,12.249448503766741,34.327171325683594,-1.8852015904017858,53.0,-17.0,29.875,-8.599375,5.269445,33.05,1
0.905402283668518,-0.06253028665270124,-0.13863200051443916,0.019521397181919642,-0.0034248570033482144,12.246470860072545,34.3318977355957,-1.9287458147321428,52.75,-17.0,29.625,14.822500000000002,5.272004,33.05,1
0.9092308528082711,-0.05308571236474174,-0.13565486124583653,-0.03923688616071429,-0.003661586216517857,12.232979910714286,34.32829284667969,-1.7071097237723214,52.75,-17.125,30.0,0.69,5.272004,33.07,1
0.9125359977994646,-0.05583999974387033,-0.1351177133832659,0.04033839634486607,-0.003378819056919643,12.231549944196429,34.32918167114258,-1.5756138392857142,52.75,-17.0,29.875,-9.82625,5.280958,33.07,1
0.911054859161377,-0.05639199904033116,-0.13014057261603218,0.024661429268973214,-0.002983572823660714,12.237572806222099,34.331058502197266,-1.1836983816964286,52.875,-17.0,29.75,11.104375000000001,5.274562,33.07,1
0.9073657097135271,-0.04900914294379098,-0.12532914059502737,-0.05052638462611607,-0.0031271798270089287,12.231874738420759,34.330631256103516,-0.10756138392857142,52.5,-17.0,29.875,0.5750000000000002,5.273283,33.07,1
0.9072262825284685,-0.04758628538676671,-0.14136457136699132,0.083690185546875,-0.003184727260044643,12.230272565569196,34.331058502197266,1.2271902901785714,52.75,-16.625,29.5,-14.445625,5.270724,33.09,1
0.9072548546109881,-0.05908914361681257,-0.13185485873903546,-0.0011771065848214285,-0.0033652169363839286,12.24432373046875,34.33053207397461,2.489990234375,53.0,-16.625,29.25,7.475624999999999,5.270724,33.09,1
0.9083394254956927,-0.07001485756465367,-0.1480937167576381,-0.0454669189453125,-0.003220040457589286,12.238521030970983,34.32967758178711,3.428615025111607,53.125,-16.5,29.0,-3.040625,5.268166,33.09,1
0.9064091409955706,-0.07939428704125541,-0.1445165709086827,0.11164097377232143,-0.0033662632533482144,12.229134695870536,34.332176208496094,3.757420131138393,53.625,-16.0,28.75,-16.123125,5.266886,33.09,1
0.9078982870919364,-0.0752845699446542,-0.14385028770991734,-0.06756251743861608,-0.003376988002232143,12.243425641741071,34.33319854736328,3.102687290736607,53.625,-16.0,28.5,19.01625,5.259211,33.09,1
0.9060205752508981,-0.08220571279525757,-0.14870971407209124,-0.053216465541294646,-0.0031774030412946427,12.238660539899554,34.33135986328125,2.194370814732143,53.5,-15.875,28.375,11.42375,5.270724,33.09,1
0.9092228610174996,-0.08564342975616455,-0.13291657107216973,0.04186026436941964,-0.0035446602957589285,12.237821306501116,34.332969665527344,1.3496791294642858,54.25,-15.875,28.25,-8.684375,5.274562,33.09,1
0.9108034256526402,-0.08817828621183123,-0.13450400045939853,0.0030220249720982143,-0.0035245186941964286,12.25301034109933,34.33106994628906,0.8223876953125,53.75,-15.75,28.75,3.8331250000000003,5.282238,33.09,1
0.907643426486424,-0.08684799977711269,-0.14860914196286884,-0.03273794991629464,-0.0035716029575892858,12.243013654436384,34.33549499511719,0.43759591238839285,53.5,-16.125,28.375,5.5125,5.287354,33.07,1
0.9030811357498169,-0.09112800019127983,-0.1539005732536316,-0.011990269252232143,-0.0033963448660714285,12.245448521205358,34.33510208129883,-0.7098301478794643,54.0,-16.0,28.375,-14.194374999999999,5.284796,33.07,1
0.9040628549030849,-0.0790148571559361,-0.15850057091031755,0.015839930943080355,-0.0029984828404017857,12.24428231375558,34.33076858520508,-2.6408168247767856,53.625,-16.5,28.75,-2.9693750000000003,5.286075,33.07,1
0.9078811441149031,-0.06186856780733381,-0.14682399885995048,-0.021076485770089286,-0.0032229178292410713,12.230106898716517,34.332401275634766,-4.533979143415179,53.0,-16.75,29.125,3.1625,5.278399,33.07,1
0.9112651423045567,-0.05667999914714268,-0.11823885611125401,-0.004954833984375,-0.0034701102120535715,12.236190795898438,34.33413314819336,-5.225184849330357,52.875,-16.75,29.625,-2.356875,5.279679,33.11,1
0.9111965690340315,-0.059661712987082345,-0.1254217164857047,0.022868826729910714,-0.0035564313616071428,12.231844220842634,34.331932067871094,-4.483014787946429,52.875,-17.25,29.875,17.603749999999998,5.268166,33.11,1
0.9110731417792184,-0.05752800158091954,-0.1256114295550755,0.0019241768973214286,-0.0029901123046875,12.218723842075892,34.33163833618164,-3.3829781668526784,52.5,-17.5,29.875,-8.925,5.275841,33.11,1
0.9108125700269427,-0.0583245723588126,-0.10556000096457345,-0.005707659040178572,-0.003267124720982143,12.229095458984375,34.331111907958984,-2.495875767299107,52.25,-17.75,29.875,-21.414375,5.259211,33.11,1
0.9130388586861746,-0.06449142728533064,-0.10965371642793928,0.03013209751674107,-0.0034272112165178573,12.230470929827009,34.332122802734375,-1.20269775390625,52.625,-17.125,29.75,10.295,5.270724,33.13,1
0.9115039948054723,-0.06409485612596784,-0.11723657131195069,-0.04727312360491071,-0.0032618931361607143,12.221511840820312,34.331356048583984,0.4419032505580357,52.75,-17.0,29.625,-0.12749999999999995,5.278399,33.13,1
0.909965718133109,-0.064695999281747,-0.11253600018365043,0.039636056082589285,-0.003160400390625,12.228526524135045,34.33034133911133,2.178798130580357,52.625,-17.125,29.75,-7.243125,5.280958,33.13,1
0.9116777120317732,-0.06645371403012956,-0.11149371351514543,0.028617292131696427,-0.0033733258928571428,12.23582022530692,34.33401870727539,3.643528529575893,52.75,-17.0,29.75,17.275624999999998,5.289913,33.13,1
0.9100251408985683,-0.07323085648672921,-0.11127885477883476,-0.047912946428571426,-0.0029608154296875,12.223515101841517,34.331233978271484,4.283743722098214,53.0,-17.0,29.625,-2.1537499999999996,5.301426,33.11,1
0.9131565686634608,-0.07393714325768606,-0.10893828528267997,0.026521257672991072,-0.003556692940848214,12.22371346609933,34.331993103027344,3.712489536830357,53.0,-17.0,29.125,-16.50375,5.309102,33.11,1
0.9114720017569405,-0.0724262877873012,-0.11015200069972447,0.021354806082589287,-0.003280726841517857,12.227168491908483,34.33221435546875,2.412562779017857,52.875,-17.0,29.625,9.70875,5.314219,33.11,1
0.9108788585662841,-0.07291771582194737,-0.12074057034083775,-0.048650599888392855,-0.0036273193359375,12.217019217354911,34.33432388305664,0.9339163643973214,52.75,-17.0,29.375,5.829375,5.315498,33.11,1
0.9107657139641898,-0.07226285696029663,-0.11120685815811157,0.015746285574776787,-0.003699253627232143,12.217123849051339,34.33589172363281,-0.37744140625,53.0,-17.0,29.25,-13.219999999999999,5.316777,33.13,1
0.9083257116590228,-0.07130742754255022,-0.11940800155912126,0.008596540178571428,-0.0031554303850446427,12.219454084123884,34.33325958251953,-1.1842302594866072,53.0,-17.0,29.875,11.43625,5.314219,33.13,1
0.9102194288798741,-0.06802856956209455,-0.12021600144250053,-0.056410609654017854,-0.003405238560267857,12.206695556640625,34.33756637573242,-1.5777762276785714,53.0,-17.0,29.875,2.573125,5.297588,33.13,1
0.9131691435405186,-0.06401142835617066,-0.11829028674534389,0.034111764090401786,-0.0034146554129464287,12.205540248325892,34.335289001464844,-1.7624947684151786,52.875,-17.0,29.625,-14.981875,5.305264,33.13,1
0.9109108550207955,-0.06761600051607404,-0.1121748535973685,0.02031895228794643,-0.0033602469308035713,12.206691196986608,34.33751678466797,-1.6597987583705358,53.0,-17.0,29.625,11.263124999999999,5.293751,33.11,1
0.9114525781358991,-0.06825485706329346,-0.10742857149669102,-0.0507861328125,-0.0033217947823660715,12.194229125976562,34.338470458984375,-1.4680001395089286,53.0,-17.0,29.375,2.9349999999999996,5.302705,33.11,1
0.9133382824489048,-0.06965257099696569,-0.10245257002966744,0.03502833775111607,-0.0032294573102678572,12.193947928292411,34.33852005004883,-1.2249232700892858,53.0,-17.0,29.25,-17.964375,5.291192,33.11,1
0.9130765751429967,-0.06933942760740007,-0.09227428776877267,0.01667149135044643,-0.0033884974888392858,12.199589320591517,34.34098815917969,-0.7244175502232143,52.75,-17.0,29.5,9.443125,5.289913,33.11,1
0.9131714289528983,-0.07037714311054774,-0.09864342859813145,-0.026137782505580357,-0.003067539760044643,12.190065656389509,34.3365364074707,0.041259765625,53.0,-17.0,29.5,6.26,5.287354,33.15,1
0.9131177118846349,-0.0722959988457816,-0.09659885951450893,0.044081595284598214,-0.003694545200892857,12.197538103376116,34.34198760986328,1.0994873046875,53.0,-17.0,29.375,-8.060625,5.300147,33.15,1
0.9108902856281825,-0.07207200050354004,-0.09497942754200527,0.023275844029017858,-0.003276803152901786,12.209599086216517,34.33995056152344,2.356175013950893,52.875,-17.25,29.875,10.95375,5.29503,33.15,1
0.9122502878734043,-0.0719280001095363,-0.10141714130129133,-0.008180367606026785,-0.003217686244419643,12.198558262416295,34.34088897705078,3.2595650809151784,52.625,-17.125,30.0,5.616875,5.305264,33.15,1
0.9131977142606462,-0.07215428761073521,-0.09328228507723127,-0.013372453962053572,-0.0033489990234375,12.207325526646205,34.3405876159668,3.2512032645089284,52.625,-17.0,30.0,-16.238125,5.298868,33.13,1
0.912379424231393,-0.07174857241766794,-0.09695085832050869,0.005006103515625,-0.0032828194754464285,12.205895560128349,34.34037780761719,2.2382725306919644,52.875,-17.0,30.0,7.10625,5.289913,33.13,1
0.9125154304504395,-0.07135428156171526,-0.10238057034356253,-0.012344970703125,-0.0034756033761160713,12.192308698381696,34.344181060791016,0.80181884765625,52.625,-17.0,30.125,1.9450000000000003,5.291192,33.13,1
0.9141794313703264,-0.07077942711966378,-0.09789028406143188,0.010162091936383929,-0.0031988525390625,12.204472133091517,34.342403411865234,-0.6114240373883929,52.625,-17.0,30.0,-14.1175,5.287354,33.13,1
0.9115657125200544,-0.07039085933140346,-0.10224457025527954,-0.018566371372767856,-0.0037892368861607143,12.19964599609375,34.3452033996582,-1.4982125418526786,52.75,-17.0,30.0,8.6125,5.284796,33.16,1
0.9119200011662074,-0.06941142695290702,-0.10323999983923776,0.12451145717075893,-0.004406563895089285,12.18812997000558,34.34595489501953,-2.059605189732143,52.75,-17.125,30.0,-0.8818750000000002,5.277121,33.16,1
0.9134445728574481,-0.06875657047544206,-0.10241714341299875,-0.07877615792410714,-0.002218715122767857,12.203079223632812,34.345176696777344,-2.297947474888393,52.875,-17.0,30.0,-14.512500000000001,5.282238,33.16,1
0.9118697139195033,-0.06732114178793772,-0.10656114101409912,-0.04224766322544643,-0.0031436593191964284,12.193688528878349,34.34687423706055,-2.1681692940848216,52.5,-17.0,29.875,7.58,5.274562,33.16,1
0.9125245714187622,-0.06750399896076748,-0.10497371196746826,0.057601579938616074,-0.00322265625,12.187990461077009,34.344970703125,-1.8385707310267858,52.75,-17.0,29.875,-0.9537499999999999,5.274562,33.15,1
0.9122377170835223,-0.06849828583853586,-0.1010891420500619,0.004151785714285715,-0.003386928013392857,12.196799142020089,34.347320556640625,-1.4877406529017858,52.625,-17.0,30.0,-6.1049999999999995,5.277121,33.15,1
0.9125222880499704,-0.06861028228487287,-0.10112342732293265,-0.06455043247767857,-0.0031143624441964286,12.191554478236608,34.347164154052734,-1.1872645786830358,52.375,-17.0,29.875,10.054375,5.274562,33.15,1
0.9142114312308175,-0.0680331427710397,-0.09092000007629394,0.03658787318638393,-0.0032998221261160716,12.190091814313616,34.347984313964844,-0.9006696428571429,52.375,-17.125,30.0,-5.166875,5.268166,33.15,1
0.9125851426805769,-0.06637600149427142,-0.0913794299534389,0.002926025390625,-0.0036252267020089285,12.200208391462054,34.34877395629883,-0.20966448102678573,52.125,-17.625,30.0,1.8568750000000005,5.264328,33.16,1
0.9123211397443499,-0.06560114111219134,-0.09775999920708793,-0.04766653878348214,-0.002713099888392857,12.192090715680804,34.34941101074219,0.8162318638392857,52.125,-17.875,30.0,8.679375,5.275841,33.16,1
0.9114948572431292,-0.06563200303486415,-0.09708228383745467,0.06277797154017857,-0.003324410574776786,12.192315237862724,34.34904479980469,1.8637520926339286,52.125,-17.75,30.0,-11.191875,5.273283,33.16,1
0.9118857097625732,-0.06524114268166678,-0.1009005720274789,0.010063214983258928,-0.003538120814732143,12.199811662946429,34.35190200805664,2.892185756138393,52.5,-17.25,30.0,6.52625,5.270724,33.16,1
0.9125771433966501,-0.06359771592276436,-0.10143314361572266,-0.050225045340401786,-0.0036581856863839284,12.186285836356026,34.35038375854492,3.2416469029017856,52.25,-17.125,29.875,6.17625,5.270724,33.15,1
0.9129554285321917,-0.06399542842592512,-0.09739200217383248,0.048330165318080355,-0.002892543247767857,12.182307652064733,34.35111618041992,2.4839564732142856,52.625,-17.25,29.875,-13.689375000000002,5.268166,33.15,1
0.9126594230106899,-0.06276457241603306,-0.10433485678264073,0.010464215959821428,-0.0037405831473214285,12.187665666852679,34.352752685546875,1.2349853515625,52.625,-17.125,29.875,12.530000000000001,5.266886,33.15,1
0.9117599984577723,-0.06284457206726074,-0.10764914103916713,-0.05813232421875,-0.0032660784040178573,12.177880423409599,34.3557243347168,-0.07026890345982142,52.625,-17.125,29.75,8.7225,5.264328,33.15,1
0.9121577201570783,-0.061664000919886996,-0.10557257005146571,0.10308811732700893,-0.0031180245535714288,12.172223772321429,34.35460662841797,-1.3212454659598214,52.75,-17.0,29.75,-15.75625,5.264328,33.15,1
0.9127200031280518,-0.06069257157189505,-0.10049371480941773,-0.0374066162109375,-0.0033730643136160713,12.182438441685267,34.35540771484375,-2.0772530691964284,52.5,-17.0,30.0,10.998125,5.26049,33.15,1
0.9119897140775408,-0.061806857926504956,-0.10469142777579171,-0.056565464564732146,-0.003376988002232143,12.175550188337054,34.35735321044922,-2.266392299107143,52.75,-17.0,29.875,10.276250000000001,5.252815,33.15,1
0.9122685745784215,-0.061877715928213936,-0.10316571474075317,0.013048618861607143,-0.0035064697265625,12.162595476422991,34.35890579223633,-2.0655430385044644,52.875,-17.0,30.0,-14.579999999999998,5.248977,33.15,1
0.9133188540594919,-0.061344001974378316,-0.10049142837524414,0.010754830496651786,-0.0031983293805803573,12.173141479492188,34.35839080810547,-1.6207798549107142,52.375,-17.125,30.0,8.403749999999999,5.248977,33.15,1
0.9119679982321603,-0.062410285813467845,-0.09530057055609567,-0.005121198381696428,-0.0033280726841517856,12.172916957310267,34.357120513916016,-1.16522216796875,52.75,-17.25,30.0,7.555624999999999,5.250256,33.15,1
0.9134605727876935,-0.061816001279013495,-0.09622514418193272,-0.0403692626953125,-0.003388759068080357,12.162806919642858,34.35927200317383,-0.7386474609375,52.625,-17.5,30.0,-14.070625000000001,5.24258,33.15,1
0.9132194280624389,-0.06145600080490112,-0.0934525728225708,0.11418587820870536,-0.003677804129464286,12.162464686802455,34.35933303833008,0.046116420200892856,52.5,-17.5,30.0,5.5825000000000005,5.247698,33.15,1
0.9122114304133824,-0.06258857216153826,-0.09257485628128052,-0.0204144287109375,-0.0030916050502232144,12.178259713309151,34.36014175415039,1.3087071010044642,52.625,-17.0,29.875,10.717500000000001,5.24258,33.16,1
0.9126057161603656,-0.0628971426827567,-0.09729257208960397,-0.054731009347098215,-0.0035708182198660714,12.175975254603795,34.361724853515625,2.6749354771205356,52.375,-17.5,29.75,-8.5575,5.251535,33.16,1
0.9121702882221767,-0.06382399695260184,-0.0964731444631304,0.011346784319196428,-0.0030549839564732143,12.165867396763392,34.360652923583984,3.3239833286830356,52.5,-17.375,29.75,-15.934375,5.238743,33.16,1
0.9141817174639021,-0.06224114179611206,-0.09383885724203928,0.015196969168526786,-0.0029733712332589285,12.17498779296875,34.35837173461914,3.0528651646205356,52.625,-17.125,29.75,15.517499999999998,5.241302,33.16,1
0.9120937136241368,-0.06672571284430368,-0.10962514400482178,-0.008325544084821428,-0.0030029296875,12.173396519252233,34.3624153137207,2.0082571847098216,53.0,-17.0,30.0,5.05875,5.22595,33.15,1
0.9100205714362009,-0.06557599987302508,-0.11634971346173968,-0.04224452427455357,-0.0036207798549107145,12.159942626953125,34.36536407470703,0.48568289620535715,53.0,-17.0,29.5,-17.52625,5.237463,33.15,1
0.9115874290466308,-0.06533371414457048,-0.11574628489358084,0.07497933523995536,-0.0032919747488839284,12.158229282924108,34.364044189453125,-0.9445539202008929,53.0,-16.875,29.875,6.0112499999999995,5.204203,33.15,1
0.91151656968253,-0.06594400099345615,-0.11189600161143712,0.018954031808035714,-0.003402099609375,12.164818899972099,34.36306381225586,-1.7319161551339286,53.0,-17.0,29.75,17.505,5.228509,33.15,1
0.910933712550572,-0.06557028497968401,-0.10706742831638881,-0.08191380092075892,-0.0032791573660714284,12.158009120396205,34.364891052246094,-1.8945225306919642,53.0,-17.0,29.625,-1.5925,5.224671,33.15,1
0.9121565689359392,-0.06404228551047189,-0.10516456944601876,0.015014910016741071,-0.0032888357979910716,12.144544328962054,34.366455078125,-1.8917061941964286,53.0,-17.0,30.0,-13.936250000000001,5.22595,33.15,1
0.9121211433410644,-0.062109713213784355,-0.09687314237867083,0.008679722377232142,-0.0033367047991071427,12.152655465262276,34.36690139770508,-1.7879202706473214,52.75,-17.0,30.0,6.605625,5.22723,33.15,1
0.9141657161712646,-0.0619348566872733,-0.09373942749840873,0.021507829938616073,-0.003431919642857143,12.155003138950892,34.365020751953125,-1.4113246372767858,52.375,-17.0,30.0,1.8893750000000002,5.224671,33.15,1
0.9130411440985543,-0.060826286588396346,-0.09096114226749966,-0.05441214425223214,-0.003172433035714286,12.14625985281808,34.365177154541016,-0.9008876255580357,52.625,-17.25,30.0,-18.9375,5.229788,33.15,1
0.9137782852990287,-0.061750857148851666,-0.08908457142966134,0.048848876953125,-0.0028904506138392855,12.143014090401786,34.36488342285156,-0.07265799386160714,52.375,-17.25,30.0,4.295,5.229788,33.15,1
0.9130502850668771,-0.06329256841114589,-0.09454857179096766,0.020248849051339286,-0.003831351143973214,12.16009521484375,34.366947174072266,1.1237531389508928,52.625,-17.125,30.0,10.5525,5.234905,33.15,1
0.910925715310233,-0.06269028629575457,-0.10359314101082938,-0.02339015415736607,-0.003306361607142857,12.159358433314733,34.365325927734375,2.46337890625,52.625,-17.125,29.875,-5.458125000000001,5.228509,33.15,1
0.9119634314945766,-0.06431657007762363,-0.10425028528485979,-0.0002006312779017857,-0.0033547537667410715,12.145172119140625,34.36606216430664,3.2897862025669644,52.5,-17.0,29.875,-17.161250000000003,5.234905,33.16,1
0.9123200007847377,-0.06269142832074846,-0.09869600227900914,0.011942138671875,-0.0032684326171875,12.153102329799108,34.365509033203125,3.145472935267857,52.75,-17.125,30.0,13.911875,5.224671,33.16,1
0.911398857661656,-0.06316914354051863,-0.09956228767122541,-0.006303274972098215,-0.00320068359375,12.149640764508929,34.37080383300781,2.1343994140625,52.875,-17.0,30.0,8.08,5.237463,33.16,1
0.9125348581586565,-0.06322514091219221,-0.10145600012370519,0.0008959089006696429,-0.0037672642299107144,12.132736206054688,34.37044906616211,0.7268240792410714,52.625,-17.0,30.0,-9.044375,5.22723,33.16,1
